,block,condition,trial_word,latency,errors,correct,response,subjnum
0,0,"Death,Life",Dead,809,0,1,Death,1
1,0,"Death,Life",Deceased,852,0,1,Death,1
2,0,"Death,Life",Alive,606,0,1,Life,1
3,0,"Death,Life",Living,420,0,1,Life,1
4,0,"Death,Life",Suicide,1347,0,1,Death,1
5,0,"Death,Life",Breathing,682,0,1,Life,1
6,0,"Death,Life",Deceased,624,0,1,Death,1
7,0,"Death,Life",Dead,686,0,1,Death,1
8,0,"Death,Life",Thrive,2204,0,1,Life,1
9,0,"Death,Life",Deceased,734,0,1,Death,1
10,0,"Death,Life",Thrive,459,0,1,Life,1
11,0,"Death,Life",Living,597,0,1,Life,1
12,0,"Death,Life",Suicide,1481,0,1,Death,1
13,0,"Death,Life",Die,1589,0,1,Death,1
14,0,"Death,Life",Thrive,782,0,1,Life,1
15,0,"Death,Life",Die,2980,0,1,Death,1
16,0,"Death,Life",Breathing,919,0,1,Life,1
17,0,"Death,Life",Living,575,0,1,Life,1
18,0,"Death,Life",Suicide,766,0,1,Death,1
19,0,"Death,Life",Alive,1877,0,1,Life,1
20,1,"Not Me,Me",I,810,0,1,Me,1
21,1,"Not Me,Me",They,638,0,1,Not Me,1
22,1,"Not Me,Me",Other,1094,0,1,Not Me,1
23,1,"Not Me,Me",Myself,1227,0,1,Me,1
24,1,"Not Me,Me",Them,534,0,1,Not Me,1
25,1,"Not Me,Me",Self,506,0,1,Me,1
26,1,"Not Me,Me",Their,534,0,1,Not Me,1
27,1,"Not Me,Me",Them,626,0,1,Not Me,1
28,1,"Not Me,Me",Mine,412,0,1,Me,1
29,1,"Not Me,Me",They,585,0,1,Not Me,1
30,1,"Not Me,Me",Their,538,0,1,Not Me,1
31,1,"Not Me,Me",Them,630,0,1,Not Me,1
32,1,"Not Me,Me",Other,453,1,0,Not Me,1
33,1,"Not Me,Me",Myself,854,0,1,Me,1
34,1,"Not Me,Me",I,485,0,1,Me,1
35,1,"Not Me,Me",I,737,0,1,Me,1
36,1,"Not Me,Me",Mine,1032,0,1,Me,1
37,1,"Not Me,Me",Their,1148,0,1,Not Me,1
38,1,"Not Me,Me",Self,806,0,1,Me,1
39,1,"Not Me,Me",Self,646,0,1,Me,1
40,0,"Life,Death",Thrive,764,0,1,Life,2
41,0,"Life,Death",Dead,952,0,1,Death,2
42,0,"Life,Death",Suicide,878,1,0,Death,2
43,0,"Life,Death",Deceased,580,0,1,Death,2
44,0,"Life,Death",Alive,896,0,1,Life,2
45,0,"Life,Death",Die,1534,0,1,Death,2
46,0,"Life,Death",Dead,932,0,1,Death,2
47,0,"Life,Death",Suicide,1990,0,1,Death,2
48,0,"Life,Death",Thrive,1377,0,1,Life,2
49,0,"Life,Death",Deceased,547,0,1,Death,2
50,0,"Life,Death",Breathing,1281,0,1,Life,2
51,0,"Life,Death",Living,1186,0,1,Life,2
52,0,"Life,Death",Breathing,665,0,1,Life,2
53,0,"Life,Death",Die,714,0,1,Death,2
54,0,"Life,Death",Alive,631,1,0,Life,2
55,0,"Life,Death",Living,678,0,1,Life,2
56,0,"Life,Death",Suicide,539,0,1,Death,2
57,0,"Life,Death",Thrive,631,0,1,Life,2
58,0,"Life,Death",Deceased,659,0,1,Death,2
59,0,"Life,Death",Dead,892,0,1,Death,2
60,1,"Not Me,Me",They,581,0,1,Not Me,2
61,1,"Not Me,Me",Other,691,0,1,Not Me,2
62,1,"Not Me,Me",Myself,1073,0,1,Me,2
63,1,"Not Me,Me",Self,1401,0,1,Me,2
64,1,"Not Me,Me",Mine,1552,0,1,Me,2
65,1,"Not Me,Me",Myself,559,0,1,Me,2
66,1,"Not Me,Me",Self,1046,0,1,Me,2
67,1,"Not Me,Me",I,517,0,1,Me,2
68,1,"Not Me,Me",Mine,908,0,1,Me,2
69,1,"Not Me,Me",Myself,604,0,1,Me,2
70,1,"Not Me,Me",Their,580,0,1,Not Me,2
71,1,"Not Me,Me",Other,686,0,1,Not Me,2
72,1,"Not Me,Me",Them,565,0,1,Not Me,2
73,1,"Not Me,Me",They,559,0,1,Not Me,2
74,1,"Not Me,Me",Self,1261,0,1,Me,2
75,1,"Not Me,Me",Their,402,0,1,Not Me,2
76,1,"Not Me,Me",Other,681,0,1,Not Me,2
77,1,"Not Me,Me",Them,446,1,0,Not Me,2
78,1,"Not Me,Me",I,1123,0,1,Me,2
79,1,"Not Me,Me",I,656,1,0,Me,2
80,2,"Life/Not Me,Death/Me",I,735,0,1,Death/Me,2
81,2,"Life/Not Me,Death/Me",Dead,2837,0,1,Death/Me,2
82,2,"Life/Not Me,Death/Me",Self,1189,0,1,Death/Me,2
83,2,"Life/Not Me,Death/Me",Breathing,556,0,1,Life/Not Me,2
84,2,"Life/Not Me,Death/Me",Other,1280,0,1,Life/Not Me,2
85,2,"Life/Not Me,Death/Me",Alive,1025,0,1,Life/Not Me,2
86,2,"Life/Not Me,Death/Me",Mine,1201,0,1,Death/Me,2
87,2,"Life/Not Me,Death/Me",Deceased,611,0,1,Death/Me,2
88,2,"Life/Not Me,Death/Me",Myself,2360,0,1,Death/Me,2
89,2,"Life/Not Me,Death/Me",Thrive,906,0,1,Life/Not Me,2
90,2,"Life/Not Me,Death/Me",Living,1406,0,1,Life/Not Me,2
91,2,"Life/Not Me,Death/Me",They,456,0,1,Life/Not Me,2
92,2,"Life/Not Me,Death/Me",Self,545,0,1,Death/Me,2
93,2,"Life/Not Me,Death/Me",Dead,447,0,1,Death/Me,2
94,2,"Life/Not Me,Death/Me",They,793,0,1,Life/Not Me,2
95,2,"Life/Not Me,Death/Me",Living,937,0,1,Life/Not Me,2
96,2,"Life/Not Me,Death/Me",Suicide,620,0,1,Death/Me,2
97,2,"Life/Not Me,Death/Me",Them,731,0,1,Life/Not Me,2
98,2,"Life/Not Me,Death/Me",Their,1570,0,1,Life/Not Me,2
99,2,"Life/Not Me,Death/Me",Die,1468,1,0,Death/Me,2
100,3,"Life/Not Me,Death/Me",They,1527,0,1,Life/Not Me,2
101,3,"Life/Not Me,Death/Me",Self,2130,0,1,Death/Me,2
102,3,"Life/Not Me,Death/Me",Alive,768,0,1,Life/Not Me,2
103,3,"Life/Not Me,Death/Me",I,649,0,1,Death/Me,2
104,3,"Life/Not Me,Death/Me",Breathing,666,0,1,Life/Not Me,2
105,3,"Life/Not Me,Death/Me",Myself,775,0,1,Death/Me,2
106,3,"Life/Not Me,Death/Me",Suicide,1025,0,1,Death/Me,2
107,3,"Life/Not Me,Death/Me",Mine,908,0,1,Death/Me,2
108,3,"Life/Not Me,Death/Me",Alive,1183,0,1,Life/Not Me,2
109,3,"Life/Not Me,Death/Me",Their,690,0,1,Life/Not Me,2
110,3,"Life/Not Me,Death/Me",Living,773,0,1,Life/Not Me,2
111,3,"Life/Not Me,Death/Me",They,1681,0,1,Life/Not Me,2
112,3,"Life/Not Me,Death/Me",Suicide,552,0,1,Death/Me,2
113,3,"Life/Not Me,Death/Me",I,471,0,1,Death/Me,2
114,3,"Life/Not Me,Death/Me",Deceased,545,0,1,Death/Me,2
115,3,"Life/Not Me,Death/Me",Their,573,0,1,Life/Not Me,2
116,3,"Life/Not Me,Death/Me",Dead,2689,0,1,Death/Me,2
117,3,"Life/Not Me,Death/Me",Them,2174,0,1,Life/Not Me,2
118,3,"Life/Not Me,Death/Me",Thrive,802,0,1,Life/Not Me,2
119,3,"Life/Not Me,Death/Me",Thrive,1146,1,0,Life/Not Me,2
120,3,"Life/Not Me,Death/Me",Their,801,1,0,Life/Not Me,2
121,3,"Life/Not Me,Death/Me",Die,511,1,0,Death/Me,2
122,3,"Life/Not Me,Death/Me",Myself,679,0,1,Death/Me,2
123,3,"Life/Not Me,Death/Me",Suicide,1135,0,1,Death/Me,2
124,3,"Life/Not Me,Death/Me",Other,674,0,1,Life/Not Me,2
125,3,"Life/Not Me,Death/Me",Breathing,934,0,1,Life/Not Me,2
126,3,"Life/Not Me,Death/Me",They,721,0,1,Life/Not Me,2
127,3,"Life/Not Me,Death/Me",Deceased,994,0,1,Death/Me,2
128,3,"Life/Not Me,Death/Me",Them,534,0,1,Life/Not Me,2
129,3,"Life/Not Me,Death/Me",Alive,487,0,1,Life/Not Me,2
130,3,"Life/Not Me,Death/Me",Living,539,1,0,Life/Not Me,2
131,3,"Life/Not Me,Death/Me",Mine,654,0,1,Death/Me,2
132,3,"Life/Not Me,Death/Me",Dead,655,0,1,Death/Me,2
133,3,"Life/Not Me,Death/Me",Self,779,0,1,Death/Me,2
134,3,"Life/Not Me,Death/Me",Die,1582,0,1,Death/Me,2
135,3,"Life/Not Me,Death/Me",Living,794,0,1,Life/Not Me,2
136,3,"Life/Not Me,Death/Me",Other,1412,0,1,Life/Not Me,2
137,3,"Life/Not Me,Death/Me",Deceased,442,0,1,Death/Me,2
138,3,"Life/Not Me,Death/Me",Mine,508,0,1,Death/Me,2
139,3,"Life/Not Me,Death/Me",I,648,0,1,Death/Me,2
140,4,"Death,Life",Breathing,438,0,1,Life,2
141,4,"Death,Life",Die,867,0,1,Death,2
142,4,"Death,Life",Living,1251,0,1,Life,2
143,4,"Death,Life",Thrive,662,1,0,Life,2
144,4,"Death,Life",Suicide,579,0,1,Death,2
145,4,"Death,Life",Alive,1157,0,1,Life,2
146,4,"Death,Life",Deceased,663,0,1,Death,2
147,4,"Death,Life",Dead,595,0,1,Death,2
148,4,"Death,Life",Suicide,1476,0,1,Death,2
149,4,"Death,Life",Die,572,0,1,Death,2
150,4,"Death,Life",Thrive,630,0,1,Life,2
151,4,"Death,Life",Dead,565,0,1,Death,2
152,4,"Death,Life",Breathing,890,0,1,Life,2
153,4,"Death,Life",Alive,1025,0,1,Life,2
154,4,"Death,Life",Deceased,907,0,1,Death,2
155,4,"Death,Life",Living,901,0,1,Life,2
156,4,"Death,Life",Die,1478,0,1,Death,2
157,4,"Death,Life",Living,579,0,1,Life,2
158,4,"Death,Life",Breathing,415,0,1,Life,2
159,4,"Death,Life",Deceased,937,0,1,Death,2
160,4,"Death,Life",Suicide,459,0,1,Death,2
161,4,"Death,Life",Alive,714,0,1,Life,2
162,4,"Death,Life",Dead,745,0,1,Death,2
163,4,"Death,Life",Living,687,0,1,Life,2
164,4,"Death,Life",Deceased,545,0,1,Death,2
165,4,"Death,Life",Dead,519,0,1,Death,2
166,4,"Death,Life",Suicide,447,0,1,Death,2
167,4,"Death,Life",Breathing,1092,0,1,Life,2
168,4,"Death,Life",Die,1557,0,1,Death,2
169,4,"Death,Life",Alive,1008,0,1,Life,2
170,4,"Death,Life",Breathing,849,0,1,Life,2
171,4,"Death,Life",Thrive,1597,0,1,Life,2
172,4,"Death,Life",Thrive,661,0,1,Life,2
173,4,"Death,Life",Deceased,519,0,1,Death,2
174,4,"Death,Life",Alive,607,0,1,Life,2
175,4,"Death,Life",Dead,606,0,1,Death,2
176,4,"Death,Life",Die,3209,0,1,Death,2
177,4,"Death,Life",Thrive,570,0,1,Life,2
178,4,"Death,Life",Living,674,0,1,Life,2
179,4,"Death,Life",Suicide,1331,0,1,Death,2
180,5,"Death/Not Me,Life/Me",Suicide,810,0,1,Death/Not Me,2
181,5,"Death/Not Me,Life/Me",Self,631,0,1,Life/Me,2
182,5,"Death/Not Me,Life/Me",Breathing,562,0,1,Life/Me,2
183,5,"Death/Not Me,Life/Me",Their,523,0,1,Death/Not Me,2
184,5,"Death/Not Me,Life/Me",Other,632,0,1,Death/Not Me,2
185,5,"Death/Not Me,Life/Me",Die,749,0,1,Death/Not Me,2
186,5,"Death/Not Me,Life/Me",Thrive,651,0,1,Life/Me,2
187,5,"Death/Not Me,Life/Me",Living,1532,0,1,Life/Me,2
188,5,"Death/Not Me,Life/Me",Mine,808,0,1,Life/Me,2
189,5,"Death/Not Me,Life/Me",Deceased,822,0,1,Death/Not Me,2
190,5,"Death/Not Me,Life/Me",They,576,1,0,Death/Not Me,2
191,5,"Death/Not Me,Life/Me",Dead,690,0,1,Death/Not Me,2
192,5,"Death/Not Me,Life/Me",Them,979,0,1,Death/Not Me,2
193,5,"Death/Not Me,Life/Me",Alive,885,0,1,Life/Me,2
194,5,"Death/Not Me,Life/Me",Myself,822,0,1,Life/Me,2
195,5,"Death/Not Me,Life/Me",They,683,1,0,Death/Not Me,2
196,5,"Death/Not Me,Life/Me",I,698,0,1,Life/Me,2
197,5,"Death/Not Me,Life/Me",Thrive,645,0,1,Life/Me,2
198,5,"Death/Not Me,Life/Me",Myself,934,0,1,Life/Me,2
199,5,"Death/Not Me,Life/Me",Alive,477,0,1,Life/Me,2
200,6,"Death/Not Me,Life/Me",Other,723,0,1,Death/Not Me,2
201,6,"Death/Not Me,Life/Me",Living,785,0,1,Life/Me,2
202,6,"Death/Not Me,Life/Me",Their,633,0,1,Death/Not Me,2
203,6,"Death/Not Me,Life/Me",Suicide,753,0,1,Death/Not Me,2
204,6,"Death/Not Me,Life/Me",Mine,1076,0,1,Life/Me,2
205,6,"Death/Not Me,Life/Me",Die,1016,0,1,Death/Not Me,2
206,6,"Death/Not Me,Life/Me",I,843,0,1,Life/Me,2
207,6,"Death/Not Me,Life/Me",Thrive,1064,0,1,Life/Me,2
208,6,"Death/Not Me,Life/Me",Mine,542,0,1,Life/Me,2
209,6,"Death/Not Me,Life/Me",Thrive,1395,0,1,Life/Me,2
210,6,"Death/Not Me,Life/Me",They,2775,0,1,Death/Not Me,2
211,6,"Death/Not Me,Life/Me",Dead,746,0,1,Death/Not Me,2
212,6,"Death/Not Me,Life/Me",Other,1372,0,1,Death/Not Me,2
213,6,"Death/Not Me,Life/Me",Alive,557,0,1,Life/Me,2
214,6,"Death/Not Me,Life/Me",Deceased,698,0,1,Death/Not Me,2
215,6,"Death/Not Me,Life/Me",Myself,551,0,1,Life/Me,2
216,6,"Death/Not Me,Life/Me",Alive,742,0,1,Life/Me,2
217,6,"Death/Not Me,Life/Me",They,1457,0,1,Death/Not Me,2
218,6,"Death/Not Me,Life/Me",Deceased,922,0,1,Death/Not Me,2
219,6,"Death/Not Me,Life/Me",Them,898,1,0,Death/Not Me,2
220,6,"Death/Not Me,Life/Me",Breathing,1155,0,1,Life/Me,2
221,6,"Death/Not Me,Life/Me",Myself,925,0,1,Life/Me,2
222,6,"Death/Not Me,Life/Me",Alive,556,0,1,Life/Me,2
223,6,"Death/Not Me,Life/Me",Self,644,0,1,Life/Me,2
224,6,"Death/Not Me,Life/Me",Dead,573,0,1,Death/Not Me,2
225,6,"Death/Not Me,Life/Me",Myself,1024,0,1,Life/Me,2
226,6,"Death/Not Me,Life/Me",Dead,559,0,1,Death/Not Me,2
227,6,"Death/Not Me,Life/Me",Them,960,1,0,Death/Not Me,2
228,6,"Death/Not Me,Life/Me",Their,1157,0,1,Death/Not Me,2
229,6,"Death/Not Me,Life/Me",Suicide,2528,0,1,Death/Not Me,2
230,6,"Death/Not Me,Life/Me",Mine,1234,0,1,Life/Me,2
231,6,"Death/Not Me,Life/Me",Thrive,418,0,1,Life/Me,2
232,6,"Death/Not Me,Life/Me",Self,547,0,1,Life/Me,2
233,6,"Death/Not Me,Life/Me",Die,1303,0,1,Death/Not Me,2
234,6,"Death/Not Me,Life/Me",I,825,0,1,Life/Me,2
235,6,"Death/Not Me,Life/Me",Breathing,625,0,1,Life/Me,2
236,6,"Death/Not Me,Life/Me",Other,1140,0,1,Death/Not Me,2
237,6,"Death/Not Me,Life/Me",Deceased,551,0,1,Death/Not Me,2
238,6,"Death/Not Me,Life/Me",Living,355,1,0,Life/Me,2
239,6,"Death/Not Me,Life/Me",They,1076,0,1,Death/Not Me,2
240,0,"Death,Life",Breathing,865,0,1,Life,3
241,0,"Death,Life",Alive,560,0,1,Life,3
242,0,"Death,Life",Living,463,0,1,Life,3
243,0,"Death,Life",Dead,595,0,1,Death,3
244,0,"Death,Life",Suicide,629,0,1,Death,3
245,0,"Death,Life",Breathing,1187,0,1,Life,3
246,0,"Death,Life",Die,880,0,1,Death,3
247,0,"Death,Life",Deceased,635,0,1,Death,3
248,0,"Death,Life",Thrive,954,0,1,Life,3
249,0,"Death,Life",Alive,1116,0,1,Life,3
250,0,"Death,Life",Thrive,472,0,1,Life,3
251,0,"Death,Life",Living,465,0,1,Life,3
252,0,"Death,Life",Suicide,507,0,1,Death,3
253,0,"Death,Life",Dead,592,0,1,Death,3
254,0,"Death,Life",Die,872,0,1,Death,3
255,0,"Death,Life",Deceased,1383,0,1,Death,3
256,0,"Death,Life",Breathing,892,0,1,Life,3
257,0,"Death,Life",Die,1273,0,1,Death,3
258,0,"Death,Life",Dead,457,0,1,Death,3
259,0,"Death,Life",Deceased,1440,0,1,Death,3
260,1,"Not Me,Me",Them,761,0,1,Not Me,3
261,1,"Not Me,Me",They,748,0,1,Not Me,3
262,1,"Not Me,Me",Mine,778,0,1,Me,3
263,1,"Not Me,Me",Other,618,0,1,Not Me,3
264,1,"Not Me,Me",Mine,684,0,1,Me,3
265,1,"Not Me,Me",I,1209,0,1,Me,3
266,1,"Not Me,Me",Their,507,0,1,Not Me,3
267,1,"Not Me,Me",Self,611,0,1,Me,3
268,1,"Not Me,Me",Myself,2650,0,1,Me,3
269,1,"Not Me,Me",They,614,0,1,Not Me,3
270,1,"Not Me,Me",Self,545,0,1,Me,3
271,1,"Not Me,Me",Their,825,0,1,Not Me,3
272,1,"Not Me,Me",Them,525,0,1,Not Me,3
273,1,"Not Me,Me",I,906,0,1,Me,3
274,1,"Not Me,Me",Myself,596,0,1,Me,3
275,1,"Not Me,Me",Myself,868,0,1,Me,3
276,1,"Not Me,Me",Their,657,0,1,Not Me,3
277,1,"Not Me,Me",Them,1014,0,1,Not Me,3
278,1,"Not Me,Me",Other,511,0,1,Not Me,3
279,1,"Not Me,Me",Other,574,0,1,Not Me,3
280,2,"Death/Not Me,Life/Me",Dead,1056,0,1,Death/Not Me,3
281,2,"Death/Not Me,Life/Me",Die,534,0,1,Death/Not Me,3
282,2,"Death/Not Me,Life/Me",Self,957,0,1,Life/Me,3
283,2,"Death/Not Me,Life/Me",Other,515,0,1,Death/Not Me,3
284,2,"Death/Not Me,Life/Me",Thrive,1798,0,1,Life/Me,3
285,2,"Death/Not Me,Life/Me",They,1972,0,1,Death/Not Me,3
286,2,"Death/Not Me,Life/Me",Deceased,991,1,0,Death/Not Me,3
287,2,"Death/Not Me,Life/Me",Mine,774,0,1,Life/Me,3
288,2,"Death/Not Me,Life/Me",Alive,623,0,1,Life/Me,3
289,2,"Death/Not Me,Life/Me",Suicide,770,0,1,Death/Not Me,3
290,2,"Death/Not Me,Life/Me",I,713,0,1,Life/Me,3
291,2,"Death/Not Me,Life/Me",Die,607,0,1,Death/Not Me,3
292,2,"Death/Not Me,Life/Me",Myself,940,0,1,Life/Me,3
293,2,"Death/Not Me,Life/Me",Breathing,497,0,1,Life/Me,3
294,2,"Death/Not Me,Life/Me",Their,479,0,1,Death/Not Me,3
295,2,"Death/Not Me,Life/Me",Dead,838,0,1,Death/Not Me,3
296,2,"Death/Not Me,Life/Me",Them,894,0,1,Death/Not Me,3
297,2,"Death/Not Me,Life/Me",Other,1067,0,1,Death/Not Me,3
298,2,"Death/Not Me,Life/Me",Self,799,0,1,Life/Me,3
299,2,"Death/Not Me,Life/Me",Living,671,0,1,Life/Me,3
300,3,"Death/Not Me,Life/Me",Die,911,0,1,Death/Not Me,3
301,3,"Death/Not Me,Life/Me",Alive,599,0,1,Life/Me,3
302,3,"Death/Not Me,Life/Me",Self,582,0,1,Life/Me,3
303,3,"Death/Not Me,Life/Me",Breathing,762,1,0,Life/Me,3
304,3,"Death/Not Me,Life/Me",Myself,743,0,1,Life/Me,3
305,3,"Death/Not Me,Life/Me",Dead,735,0,1,Death/Not Me,3
306,3,"Death/Not Me,Life/Me",Them,944,0,1,Death/Not Me,3
307,3,"Death/Not Me,Life/Me",Suicide,1045,0,1,Death/Not Me,3
308,3,"Death/Not Me,Life/Me",Mine,624,0,1,Life/Me,3
309,3,"Death/Not Me,Life/Me",Deceased,476,0,1,Death/Not Me,3
310,3,"Death/Not Me,Life/Me",I,621,0,1,Life/Me,3
311,3,"Death/Not Me,Life/Me",Living,789,0,1,Life/Me,3
312,3,"Death/Not Me,Life/Me",They,1034,0,1,Death/Not Me,3
313,3,"Death/Not Me,Life/Me",Thrive,583,0,1,Life/Me,3
314,3,"Death/Not Me,Life/Me",I,485,0,1,Life/Me,3
315,3,"Death/Not Me,Life/Me",Breathing,459,0,1,Life/Me,3
316,3,"Death/Not Me,Life/Me",Mine,941,0,1,Life/Me,3
317,3,"Death/Not Me,Life/Me",Suicide,728,0,1,Death/Not Me,3
318,3,"Death/Not Me,Life/Me",Other,502,0,1,Death/Not Me,3
319,3,"Death/Not Me,Life/Me",Living,1326,0,1,Life/Me,3
320,3,"Death/Not Me,Life/Me",They,547,0,1,Death/Not Me,3
321,3,"Death/Not Me,Life/Me",Their,967,0,1,Death/Not Me,3
322,3,"Death/Not Me,Life/Me",Die,514,0,1,Death/Not Me,3
323,3,"Death/Not Me,Life/Me",Other,1305,0,1,Death/Not Me,3
324,3,"Death/Not Me,Life/Me",Dead,925,0,1,Death/Not Me,3
325,3,"Death/Not Me,Life/Me",Myself,453,0,1,Life/Me,3
326,3,"Death/Not Me,Life/Me",Deceased,615,0,1,Death/Not Me,3
327,3,"Death/Not Me,Life/Me",Them,1151,0,1,Death/Not Me,3
328,3,"Death/Not Me,Life/Me",Their,964,0,1,Death/Not Me,3
329,3,"Death/Not Me,Life/Me",Thrive,634,0,1,Life/Me,3
330,3,"Death/Not Me,Life/Me",Mine,815,0,1,Life/Me,3
331,3,"Death/Not Me,Life/Me",Living,806,0,1,Life/Me,3
332,3,"Death/Not Me,Life/Me",Other,1105,0,1,Death/Not Me,3
333,3,"Death/Not Me,Life/Me",Alive,1312,0,1,Life/Me,3
334,3,"Death/Not Me,Life/Me",Self,505,0,1,Life/Me,3
335,3,"Death/Not Me,Life/Me",Breathing,717,0,1,Life/Me,3
336,3,"Death/Not Me,Life/Me",They,497,0,1,Death/Not Me,3
337,3,"Death/Not Me,Life/Me",I,812,0,1,Life/Me,3
338,3,"Death/Not Me,Life/Me",Suicide,582,0,1,Death/Not Me,3
339,3,"Death/Not Me,Life/Me",Deceased,818,0,1,Death/Not Me,3
340,4,"Life,Death",Breathing,1387,1,0,Life,3
341,4,"Life,Death",Thrive,533,0,1,Life,3
342,4,"Life,Death",Suicide,524,0,1,Death,3
343,4,"Life,Death",Deceased,681,0,1,Death,3
344,4,"Life,Death",Living,1336,0,1,Life,3
345,4,"Life,Death",Alive,763,0,1,Life,3
346,4,"Life,Death",Die,913,0,1,Death,3
347,4,"Life,Death",Thrive,653,0,1,Life,3
348,4,"Life,Death",Dead,728,0,1,Death,3
349,4,"Life,Death",Thrive,1168,0,1,Life,3
350,4,"Life,Death",Breathing,533,0,1,Life,3
351,4,"Life,Death",Living,525,0,1,Life,3
352,4,"Life,Death",Dead,619,0,1,Death,3
353,4,"Life,Death",Deceased,1518,0,1,Death,3
354,4,"Life,Death",Alive,469,0,1,Life,3
355,4,"Life,Death",Die,1364,0,1,Death,3
356,4,"Life,Death",Suicide,2479,0,1,Death,3
357,4,"Life,Death",Suicide,1571,0,1,Death,3
358,4,"Life,Death",Deceased,1364,0,1,Death,3
359,4,"Life,Death",Suicide,568,0,1,Death,3
360,4,"Life,Death",Die,683,0,1,Death,3
361,4,"Life,Death",Die,700,0,1,Death,3
362,4,"Life,Death",Deceased,1687,0,1,Death,3
363,4,"Life,Death",Suicide,858,0,1,Death,3
364,4,"Life,Death",Breathing,1459,0,1,Life,3
365,4,"Life,Death",Alive,565,0,1,Life,3
366,4,"Life,Death",Dead,576,0,1,Death,3
367,4,"Life,Death",Dead,509,0,1,Death,3
368,4,"Life,Death",Dead,628,0,1,Death,3
369,4,"Life,Death",Thrive,784,0,1,Life,3
370,4,"Life,Death",Deceased,654,0,1,Death,3
371,4,"Life,Death",Breathing,1252,0,1,Life,3
372,4,"Life,Death",Die,566,0,1,Death,3
373,4,"Life,Death",Living,530,0,1,Life,3
374,4,"Life,Death",Alive,1843,0,1,Life,3
375,4,"Life,Death",Living,708,0,1,Life,3
376,4,"Life,Death",Breathing,803,0,1,Life,3
377,4,"Life,Death",Alive,727,0,1,Life,3
378,4,"Life,Death",Living,710,0,1,Life,3
379,4,"Life,Death",Thrive,1095,0,1,Life,3
380,5,"Life/Not Me,Death/Me",Other,444,0,1,Life/Not Me,3
381,5,"Life/Not Me,Death/Me",Living,569,0,1,Life/Not Me,3
382,5,"Life/Not Me,Death/Me",Dead,618,0,1,Death/Me,3
383,5,"Life/Not Me,Death/Me",Their,723,0,1,Life/Not Me,3
384,5,"Life/Not Me,Death/Me",Die,716,0,1,Death/Me,3
385,5,"Life/Not Me,Death/Me",Deceased,1308,0,1,Death/Me,3
386,5,"Life/Not Me,Death/Me",Myself,523,0,1,Death/Me,3
387,5,"Life/Not Me,Death/Me",Suicide,561,0,1,Death/Me,3
388,5,"Life/Not Me,Death/Me",Them,977,0,1,Life/Not Me,3
389,5,"Life/Not Me,Death/Me",Thrive,1106,0,1,Life/Not Me,3
390,5,"Life/Not Me,Death/Me",Self,528,0,1,Death/Me,3
391,5,"Life/Not Me,Death/Me",Breathing,627,0,1,Life/Not Me,3
392,5,"Life/Not Me,Death/Me",Other,719,0,1,Life/Not Me,3
393,5,"Life/Not Me,Death/Me",Thrive,510,0,1,Life/Not Me,3
394,5,"Life/Not Me,Death/Me",Their,666,0,1,Life/Not Me,3
395,5,"Life/Not Me,Death/Me",Deceased,764,1,0,Death/Me,3
396,5,"Life/Not Me,Death/Me",They,861,0,1,Life/Not Me,3
397,5,"Life/Not Me,Death/Me",Alive,800,0,1,Life/Not Me,3
398,5,"Life/Not Me,Death/Me",Mine,500,0,1,Death/Me,3
399,5,"Life/Not Me,Death/Me",I,463,0,1,Death/Me,3
400,6,"Life/Not Me,Death/Me",I,509,0,1,Death/Me,3
401,6,"Life/Not Me,Death/Me",Thrive,1050,0,1,Life/Not Me,3
402,6,"Life/Not Me,Death/Me",Their,522,0,1,Life/Not Me,3
403,6,"Life/Not Me,Death/Me",Suicide,668,1,0,Death/Me,3
404,6,"Life/Not Me,Death/Me",Myself,577,0,1,Death/Me,3
405,6,"Life/Not Me,Death/Me",Die,835,0,1,Death/Me,3
406,6,"Life/Not Me,Death/Me",They,526,0,1,Life/Not Me,3
407,6,"Life/Not Me,Death/Me",Living,1395,1,0,Life/Not Me,3
408,6,"Life/Not Me,Death/Me",Dead,527,0,1,Death/Me,3
409,6,"Life/Not Me,Death/Me",Thrive,442,1,0,Life/Not Me,3
410,6,"Life/Not Me,Death/Me",They,1027,0,1,Life/Not Me,3
411,6,"Life/Not Me,Death/Me",Deceased,1787,0,1,Death/Me,3
412,6,"Life/Not Me,Death/Me",Self,620,0,1,Death/Me,3
413,6,"Life/Not Me,Death/Me",Suicide,432,0,1,Death/Me,3
414,6,"Life/Not Me,Death/Me",Other,1000,0,1,Life/Not Me,3
415,6,"Life/Not Me,Death/Me",Self,648,0,1,Death/Me,3
416,6,"Life/Not Me,Death/Me",Living,1519,0,1,Life/Not Me,3
417,6,"Life/Not Me,Death/Me",Deceased,2253,1,0,Death/Me,3
418,6,"Life/Not Me,Death/Me",I,1424,0,1,Death/Me,3
419,6,"Life/Not Me,Death/Me",Them,613,0,1,Life/Not Me,3
420,6,"Life/Not Me,Death/Me",Other,510,0,1,Life/Not Me,3
421,6,"Life/Not Me,Death/Me",Deceased,691,0,1,Death/Me,3
422,6,"Life/Not Me,Death/Me",Mine,667,0,1,Death/Me,3
423,6,"Life/Not Me,Death/Me",Alive,619,0,1,Life/Not Me,3
424,6,"Life/Not Me,Death/Me",Myself,1192,0,1,Death/Me,3
425,6,"Life/Not Me,Death/Me",Living,1089,0,1,Life/Not Me,3
426,6,"Life/Not Me,Death/Me",Self,897,0,1,Death/Me,3
427,6,"Life/Not Me,Death/Me",Suicide,768,0,1,Death/Me,3
428,6,"Life/Not Me,Death/Me",Them,658,0,1,Life/Not Me,3
429,6,"Life/Not Me,Death/Me",Breathing,607,0,1,Life/Not Me,3
430,6,"Life/Not Me,Death/Me",They,794,0,1,Life/Not Me,3
431,6,"Life/Not Me,Death/Me",Die,486,0,1,Death/Me,3
432,6,"Life/Not Me,Death/Me",Other,913,0,1,Life/Not Me,3
433,6,"Life/Not Me,Death/Me",Alive,623,0,1,Life/Not Me,3
434,6,"Life/Not Me,Death/Me",I,1006,0,1,Death/Me,3
435,6,"Life/Not Me,Death/Me",Breathing,988,0,1,Life/Not Me,3
436,6,"Life/Not Me,Death/Me",Their,750,0,1,Life/Not Me,3
437,6,"Life/Not Me,Death/Me",Dead,1460,0,1,Death/Me,3
438,6,"Life/Not Me,Death/Me",Thrive,926,0,1,Life/Not Me,3
439,6,"Life/Not Me,Death/Me",Mine,988,0,1,Death/Me,3
440,0,"Death,Life",Breathing,882,0,1,Life,4
441,0,"Death,Life",Deceased,695,0,1,Death,4
442,0,"Death,Life",Dead,895,0,1,Death,4
443,0,"Death,Life",Living,809,0,1,Life,4
444,0,"Death,Life",Suicide,562,0,1,Death,4
445,0,"Death,Life",Deceased,509,0,1,Death,4
446,0,"Death,Life",Suicide,619,0,1,Death,4
447,0,"Death,Life",Living,959,0,1,Life,4
448,0,"Death,Life",Alive,571,0,1,Life,4
449,0,"Death,Life",Breathing,517,0,1,Life,4
450,0,"Death,Life",Deceased,431,0,1,Death,4
451,0,"Death,Life",Alive,550,0,1,Life,4
452,0,"Death,Life",Thrive,706,0,1,Life,4
453,0,"Death,Life",Thrive,729,0,1,Life,4
454,0,"Death,Life",Breathing,953,0,1,Life,4
455,0,"Death,Life",Dead,457,0,1,Death,4
456,0,"Death,Life",Living,1126,0,1,Life,4
457,0,"Death,Life",Die,681,0,1,Death,4
458,0,"Death,Life",Suicide,1865,0,1,Death,4
459,0,"Death,Life",Die,773,0,1,Death,4
460,1,"Not Me,Me",Myself,1954,0,1,Me,4
461,1,"Not Me,Me",Self,581,0,1,Me,4
462,1,"Not Me,Me",I,294,0,1,Me,4
463,1,"Not Me,Me",They,475,0,1,Not Me,4
464,1,"Not Me,Me",Other,555,0,1,Not Me,4
465,1,"Not Me,Me",Mine,2740,0,1,Me,4
466,1,"Not Me,Me",Them,508,0,1,Not Me,4
467,1,"Not Me,Me",Their,908,0,1,Not Me,4
468,1,"Not Me,Me",Myself,725,0,1,Me,4
469,1,"Not Me,Me",Mine,1223,0,1,Me,4
470,1,"Not Me,Me",I,498,0,1,Me,4
471,1,"Not Me,Me",They,478,0,1,Not Me,4
472,1,"Not Me,Me",Their,1465,0,1,Not Me,4
473,1,"Not Me,Me",Self,480,0,1,Me,4
474,1,"Not Me,Me",Other,562,0,1,Not Me,4
475,1,"Not Me,Me",Mine,805,0,1,Me,4
476,1,"Not Me,Me",Self,796,0,1,Me,4
477,1,"Not Me,Me",Their,592,0,1,Not Me,4
478,1,"Not Me,Me",I,1683,0,1,Me,4
479,1,"Not Me,Me",Them,449,0,1,Not Me,4
480,2,"Death/Not Me,Life/Me",Breathing,385,0,1,Life/Me,4
481,2,"Death/Not Me,Life/Me",I,562,0,1,Life/Me,4
482,2,"Death/Not Me,Life/Me",Thrive,606,0,1,Life/Me,4
483,2,"Death/Not Me,Life/Me",Their,854,0,1,Death/Not Me,4
484,2,"Death/Not Me,Life/Me",Living,699,0,1,Life/Me,4
485,2,"Death/Not Me,Life/Me",Myself,953,0,1,Life/Me,4
486,2,"Death/Not Me,Life/Me",Alive,1500,0,1,Life/Me,4
487,2,"Death/Not Me,Life/Me",Other,594,0,1,Death/Not Me,4
488,2,"Death/Not Me,Life/Me",Die,730,0,1,Death/Not Me,4
489,2,"Death/Not Me,Life/Me",Thrive,2032,0,1,Life/Me,4
490,2,"Death/Not Me,Life/Me",Mine,555,0,1,Life/Me,4
491,2,"Death/Not Me,Life/Me",Suicide,743,0,1,Death/Not Me,4
492,2,"Death/Not Me,Life/Me",Self,684,0,1,Life/Me,4
493,2,"Death/Not Me,Life/Me",Breathing,923,0,1,Life/Me,4
494,2,"Death/Not Me,Life/Me",I,658,0,1,Life/Me,4
495,2,"Death/Not Me,Life/Me",Deceased,869,0,1,Death/Not Me,4
496,2,"Death/Not Me,Life/Me",Their,1012,0,1,Death/Not Me,4
497,2,"Death/Not Me,Life/Me",Dead,685,0,1,Death/Not Me,4
498,2,"Death/Not Me,Life/Me",They,1619,0,1,Death/Not Me,4
499,2,"Death/Not Me,Life/Me",Them,685,0,1,Death/Not Me,4
500,3,"Death/Not Me,Life/Me",Breathing,1767,0,1,Life/Me,4
501,3,"Death/Not Me,Life/Me",They,1234,0,1,Death/Not Me,4
502,3,"Death/Not Me,Life/Me",Dead,707,0,1,Death/Not Me,4
503,3,"Death/Not Me,Life/Me",Alive,1038,0,1,Life/Me,4
504,3,"Death/Not Me,Life/Me",Die,830,0,1,Death/Not Me,4
505,3,"Death/Not Me,Life/Me",Them,1059,0,1,Death/Not Me,4
506,3,"Death/Not Me,Life/Me",Self,813,0,1,Life/Me,4
507,3,"Death/Not Me,Life/Me",Myself,514,0,1,Life/Me,4
508,3,"Death/Not Me,Life/Me",Mine,729,0,1,Life/Me,4
509,3,"Death/Not Me,Life/Me",Their,508,0,1,Death/Not Me,4
510,3,"Death/Not Me,Life/Me",Suicide,593,0,1,Death/Not Me,4
511,3,"Death/Not Me,Life/Me",Them,780,0,1,Death/Not Me,4
512,3,"Death/Not Me,Life/Me",Alive,807,0,1,Life/Me,4
513,3,"Death/Not Me,Life/Me",I,839,0,1,Life/Me,4
514,3,"Death/Not Me,Life/Me",Myself,758,0,1,Life/Me,4
515,3,"Death/Not Me,Life/Me",Thrive,730,0,1,Life/Me,4
516,3,"Death/Not Me,Life/Me",Mine,1455,0,1,Life/Me,4
517,3,"Death/Not Me,Life/Me",Breathing,970,0,1,Life/Me,4
518,3,"Death/Not Me,Life/Me",Other,630,0,1,Death/Not Me,4
519,3,"Death/Not Me,Life/Me",Suicide,1246,0,1,Death/Not Me,4
520,3,"Death/Not Me,Life/Me",Living,704,0,1,Life/Me,4
521,3,"Death/Not Me,Life/Me",Deceased,613,0,1,Death/Not Me,4
522,3,"Death/Not Me,Life/Me",Their,1742,0,1,Death/Not Me,4
523,3,"Death/Not Me,Life/Me",I,450,0,1,Life/Me,4
524,3,"Death/Not Me,Life/Me",Dead,824,0,1,Death/Not Me,4
525,3,"Death/Not Me,Life/Me",Thrive,2843,0,1,Life/Me,4
526,3,"Death/Not Me,Life/Me",Self,2032,0,1,Life/Me,4
527,3,"Death/Not Me,Life/Me",Deceased,455,0,1,Death/Not Me,4
528,3,"Death/Not Me,Life/Me",Other,1137,0,1,Death/Not Me,4
529,3,"Death/Not Me,Life/Me",Living,1477,0,1,Life/Me,4
530,3,"Death/Not Me,Life/Me",They,723,0,1,Death/Not Me,4
531,3,"Death/Not Me,Life/Me",Myself,556,1,0,Life/Me,4
532,3,"Death/Not Me,Life/Me",Alive,390,0,1,Life/Me,4
533,3,"Death/Not Me,Life/Me",Other,667,0,1,Death/Not Me,4
534,3,"Death/Not Me,Life/Me",Thrive,678,0,1,Life/Me,4
535,3,"Death/Not Me,Life/Me",I,814,0,1,Life/Me,4
536,3,"Death/Not Me,Life/Me",Suicide,505,0,1,Death/Not Me,4
537,3,"Death/Not Me,Life/Me",They,1256,1,0,Death/Not Me,4
538,3,"Death/Not Me,Life/Me",Dead,583,0,1,Death/Not Me,4
539,3,"Death/Not Me,Life/Me",Die,656,1,0,Death/Not Me,4
540,4,"Life,Death",Suicide,1110,0,1,Death,4
541,4,"Life,Death",Living,1085,0,1,Life,4
542,4,"Life,Death",Alive,503,0,1,Life,4
543,4,"Life,Death",Alive,770,0,1,Life,4
544,4,"Life,Death",Thrive,708,0,1,Life,4
545,4,"Life,Death",Suicide,615,0,1,Death,4
546,4,"Life,Death",Deceased,464,0,1,Death,4
547,4,"Life,Death",Die,508,0,1,Death,4
548,4,"Life,Death",Living,548,0,1,Life,4
549,4,"Life,Death",Breathing,1066,0,1,Life,4
550,4,"Life,Death",Dead,576,0,1,Death,4
551,4,"Life,Death",Deceased,1277,0,1,Death,4
552,4,"Life,Death",Alive,994,0,1,Life,4
553,4,"Life,Death",Dead,748,0,1,Death,4
554,4,"Life,Death",Die,1692,0,1,Death,4
555,4,"Life,Death",Living,591,0,1,Life,4
556,4,"Life,Death",Thrive,360,0,1,Life,4
557,4,"Life,Death",Breathing,655,0,1,Life,4
558,4,"Life,Death",Suicide,656,0,1,Death,4
559,4,"Life,Death",Breathing,672,0,1,Life,4
560,4,"Life,Death",Die,692,0,1,Death,4
561,4,"Life,Death",Dead,634,0,1,Death,4
562,4,"Life,Death",Alive,1263,0,1,Life,4
563,4,"Life,Death",Thrive,1102,0,1,Life,4
564,4,"Life,Death",Die,554,0,1,Death,4
565,4,"Life,Death",Suicide,638,0,1,Death,4
566,4,"Life,Death",Deceased,542,0,1,Death,4
567,4,"Life,Death",Breathing,643,0,1,Life,4
568,4,"Life,Death",Living,531,0,1,Life,4
569,4,"Life,Death",Thrive,541,0,1,Life,4
570,4,"Life,Death",Dead,856,0,1,Death,4
571,4,"Life,Death",Deceased,1071,0,1,Death,4
572,4,"Life,Death",Suicide,5475,0,1,Death,4
573,4,"Life,Death",Living,604,0,1,Life,4
574,4,"Life,Death",Alive,538,0,1,Life,4
575,4,"Life,Death",Die,399,0,1,Death,4
576,4,"Life,Death",Deceased,560,0,1,Death,4
577,4,"Life,Death",Dead,726,0,1,Death,4
578,4,"Life,Death",Breathing,1848,0,1,Life,4
579,4,"Life,Death",Thrive,921,0,1,Life,4
580,5,"Life/Not Me,Death/Me",Dead,1087,0,1,Death/Me,4
581,5,"Life/Not Me,Death/Me",Mine,555,0,1,Death/Me,4
582,5,"Life/Not Me,Death/Me",Die,639,0,1,Death/Me,4
583,5,"Life/Not Me,Death/Me",Their,566,0,1,Life/Not Me,4
584,5,"Life/Not Me,Death/Me",Living,907,0,1,Life/Not Me,4
585,5,"Life/Not Me,Death/Me",Myself,2685,0,1,Death/Me,4
586,5,"Life/Not Me,Death/Me",Breathing,727,0,1,Life/Not Me,4
587,5,"Life/Not Me,Death/Me",They,1599,0,1,Life/Not Me,4
588,5,"Life/Not Me,Death/Me",Deceased,693,0,1,Death/Me,4
589,5,"Life/Not Me,Death/Me",I,856,0,1,Death/Me,4
590,5,"Life/Not Me,Death/Me",Alive,662,0,1,Life/Not Me,4
591,5,"Life/Not Me,Death/Me",Them,789,0,1,Life/Not Me,4
592,5,"Life/Not Me,Death/Me",Suicide,670,0,1,Death/Me,4
593,5,"Life/Not Me,Death/Me",Other,2231,0,1,Life/Not Me,4
594,5,"Life/Not Me,Death/Me",Thrive,460,0,1,Life/Not Me,4
595,5,"Life/Not Me,Death/Me",Self,1054,0,1,Death/Me,4
596,5,"Life/Not Me,Death/Me",Dead,405,0,1,Death/Me,4
597,5,"Life/Not Me,Death/Me",I,1055,0,1,Death/Me,4
598,5,"Life/Not Me,Death/Me",Deceased,541,0,1,Death/Me,4
599,5,"Life/Not Me,Death/Me",Their,432,0,1,Life/Not Me,4
600,6,"Life/Not Me,Death/Me",Suicide,597,0,1,Death/Me,4
601,6,"Life/Not Me,Death/Me",They,713,0,1,Life/Not Me,4
602,6,"Life/Not Me,Death/Me",Dead,492,0,1,Death/Me,4
603,6,"Life/Not Me,Death/Me",Self,537,0,1,Death/Me,4
604,6,"Life/Not Me,Death/Me",Mine,576,0,1,Death/Me,4
605,6,"Life/Not Me,Death/Me",Living,763,0,1,Life/Not Me,4
606,6,"Life/Not Me,Death/Me",I,1252,0,1,Death/Me,4
607,6,"Life/Not Me,Death/Me",Alive,642,0,1,Life/Not Me,4
608,6,"Life/Not Me,Death/Me",They,504,0,1,Life/Not Me,4
609,6,"Life/Not Me,Death/Me",Deceased,505,0,1,Death/Me,4
610,6,"Life/Not Me,Death/Me",Them,517,0,1,Life/Not Me,4
611,6,"Life/Not Me,Death/Me",Living,1123,0,1,Life/Not Me,4
612,6,"Life/Not Me,Death/Me",Self,599,1,0,Death/Me,4
613,6,"Life/Not Me,Death/Me",Dead,951,0,1,Death/Me,4
614,6,"Life/Not Me,Death/Me",Alive,890,0,1,Life/Not Me,4
615,6,"Life/Not Me,Death/Me",Other,596,0,1,Life/Not Me,4
616,6,"Life/Not Me,Death/Me",Their,546,0,1,Life/Not Me,4
617,6,"Life/Not Me,Death/Me",Suicide,2283,0,1,Death/Me,4
618,6,"Life/Not Me,Death/Me",Mine,556,0,1,Death/Me,4
619,6,"Life/Not Me,Death/Me",Breathing,1203,0,1,Life/Not Me,4
620,6,"Life/Not Me,Death/Me",They,781,0,1,Life/Not Me,4
621,6,"Life/Not Me,Death/Me",Deceased,676,0,1,Death/Me,4
622,6,"Life/Not Me,Death/Me",Them,1398,0,1,Life/Not Me,4
623,6,"Life/Not Me,Death/Me",Living,949,0,1,Life/Not Me,4
624,6,"Life/Not Me,Death/Me",Self,490,0,1,Death/Me,4
625,6,"Life/Not Me,Death/Me",Dead,667,0,1,Death/Me,4
626,6,"Life/Not Me,Death/Me",Myself,644,1,0,Death/Me,4
627,6,"Life/Not Me,Death/Me",Alive,479,0,1,Life/Not Me,4
628,6,"Life/Not Me,Death/Me",Other,407,0,1,Life/Not Me,4
629,6,"Life/Not Me,Death/Me",Thrive,469,0,1,Life/Not Me,4
630,6,"Life/Not Me,Death/Me",Their,1768,0,1,Life/Not Me,4
631,6,"Life/Not Me,Death/Me",Die,879,0,1,Death/Me,4
632,6,"Life/Not Me,Death/Me",Them,640,0,1,Life/Not Me,4
633,6,"Life/Not Me,Death/Me",Die,1370,0,1,Death/Me,4
634,6,"Life/Not Me,Death/Me",Myself,917,0,1,Death/Me,4
635,6,"Life/Not Me,Death/Me",Deceased,458,0,1,Death/Me,4
636,6,"Life/Not Me,Death/Me",I,576,0,1,Death/Me,4
637,6,"Life/Not Me,Death/Me",Thrive,4125,0,1,Life/Not Me,4
638,6,"Life/Not Me,Death/Me",Breathing,678,0,1,Life/Not Me,4
639,6,"Life/Not Me,Death/Me",I,2208,0,1,Death/Me,4
640,0,"Life,Death",Die,552,0,1,Death,5
641,0,"Life,Death",Living,1075,0,1,Life,5
642,0,"Life,Death",Dead,563,0,1,Death,5
643,0,"Life,Death",Suicide,724,1,0,Death,5
644,0,"Life,Death",Alive,1106,0,1,Life,5
645,0,"Life,Death",Breathing,514,0,1,Life,5
646,0,"Life,Death",Thrive,740,0,1,Life,5
647,0,"Life,Death",Deceased,752,0,1,Death,5
648,0,"Life,Death",Suicide,630,0,1,Death,5
649,0,"Life,Death",Alive,1158,0,1,Life,5
650,0,"Life,Death",Thrive,1867,0,1,Life,5
651,0,"Life,Death",Die,623,0,1,Death,5
652,0,"Life,Death",Die,1484,0,1,Death,5
653,0,"Life,Death",Breathing,622,0,1,Life,5
654,0,"Life,Death",Living,480,0,1,Life,5
655,0,"Life,Death",Dead,629,0,1,Death,5
656,0,"Life,Death",Deceased,870,0,1,Death,5
657,0,"Life,Death",Living,844,0,1,Life,5
658,0,"Life,Death",Breathing,603,0,1,Life,5
659,0,"Life,Death",Thrive,1928,0,1,Life,5
660,1,"Not Me,Me",They,615,0,1,Not Me,5
661,1,"Not Me,Me",I,940,0,1,Me,5
662,1,"Not Me,Me",Self,1178,0,1,Me,5
663,1,"Not Me,Me",Other,405,0,1,Not Me,5
664,1,"Not Me,Me",Mine,477,0,1,Me,5
665,1,"Not Me,Me",Them,1516,0,1,Not Me,5
666,1,"Not Me,Me",They,1334,0,1,Not Me,5
667,1,"Not Me,Me",Them,783,0,1,Not Me,5
668,1,"Not Me,Me",Their,4389,0,1,Not Me,5
669,1,"Not Me,Me",Other,539,0,1,Not Me,5
670,1,"Not Me,Me",I,522,0,1,Me,5
671,1,"Not Me,Me",Mine,735,0,1,Me,5
672,1,"Not Me,Me",Self,739,0,1,Me,5
673,1,"Not Me,Me",They,1041,1,0,Not Me,5
674,1,"Not Me,Me",Self,462,0,1,Me,5
675,1,"Not Me,Me",Mine,1069,0,1,Me,5
676,1,"Not Me,Me",Myself,888,0,1,Me,5
677,1,"Not Me,Me",Myself,596,0,1,Me,5
678,1,"Not Me,Me",Their,502,0,1,Not Me,5
679,1,"Not Me,Me",Myself,965,0,1,Me,5
680,2,"Life/Not Me,Death/Me",Dead,693,0,1,Death/Me,5
681,2,"Life/Not Me,Death/Me",Their,606,0,1,Life/Not Me,5
682,2,"Life/Not Me,Death/Me",Alive,590,0,1,Life/Not Me,5
683,2,"Life/Not Me,Death/Me",Them,721,0,1,Life/Not Me,5
684,2,"Life/Not Me,Death/Me",Suicide,701,0,1,Death/Me,5
685,2,"Life/Not Me,Death/Me",Myself,669,0,1,Death/Me,5
686,2,"Life/Not Me,Death/Me",Thrive,667,0,1,Life/Not Me,5
687,2,"Life/Not Me,Death/Me",I,626,0,1,Death/Me,5
688,2,"Life/Not Me,Death/Me",Self,633,0,1,Death/Me,5
689,2,"Life/Not Me,Death/Me",I,1077,0,1,Death/Me,5
690,2,"Life/Not Me,Death/Me",Breathing,1172,0,1,Life/Not Me,5
691,2,"Life/Not Me,Death/Me",Living,704,1,0,Life/Not Me,5
692,2,"Life/Not Me,Death/Me",Die,567,1,0,Death/Me,5
693,2,"Life/Not Me,Death/Me",Other,413,0,1,Life/Not Me,5
694,2,"Life/Not Me,Death/Me",They,891,0,1,Life/Not Me,5
695,2,"Life/Not Me,Death/Me",Die,864,1,0,Death/Me,5
696,2,"Life/Not Me,Death/Me",Self,687,0,1,Death/Me,5
697,2,"Life/Not Me,Death/Me",Breathing,1025,0,1,Life/Not Me,5
698,2,"Life/Not Me,Death/Me",Mine,837,0,1,Death/Me,5
699,2,"Life/Not Me,Death/Me",Deceased,545,0,1,Death/Me,5
700,3,"Life/Not Me,Death/Me",Self,536,0,1,Death/Me,5
701,3,"Life/Not Me,Death/Me",They,1419,0,1,Life/Not Me,5
702,3,"Life/Not Me,Death/Me",Thrive,1331,0,1,Life/Not Me,5
703,3,"Life/Not Me,Death/Me",Their,1299,0,1,Life/Not Me,5
704,3,"Life/Not Me,Death/Me",Dead,574,0,1,Death/Me,5
705,3,"Life/Not Me,Death/Me",Myself,558,0,1,Death/Me,5
706,3,"Life/Not Me,Death/Me",Breathing,666,0,1,Life/Not Me,5
707,3,"Life/Not Me,Death/Me",Die,418,0,1,Death/Me,5
708,3,"Life/Not Me,Death/Me",Them,755,0,1,Life/Not Me,5
709,3,"Life/Not Me,Death/Me",Alive,706,1,0,Life/Not Me,5
710,3,"Life/Not Me,Death/Me",Suicide,590,1,0,Death/Me,5
711,3,"Life/Not Me,Death/Me",Suicide,615,1,0,Death/Me,5
712,3,"Life/Not Me,Death/Me",Deceased,1651,0,1,Death/Me,5
713,3,"Life/Not Me,Death/Me",Self,881,0,1,Death/Me,5
714,3,"Life/Not Me,Death/Me",Breathing,1530,0,1,Life/Not Me,5
715,3,"Life/Not Me,Death/Me",Mine,538,0,1,Death/Me,5
716,3,"Life/Not Me,Death/Me",I,1061,0,1,Death/Me,5
717,3,"Life/Not Me,Death/Me",Living,1426,0,1,Life/Not Me,5
718,3,"Life/Not Me,Death/Me",Mine,927,1,0,Death/Me,5
719,3,"Life/Not Me,Death/Me",Deceased,576,0,1,Death/Me,5
720,3,"Life/Not Me,Death/Me",They,927,0,1,Life/Not Me,5
721,3,"Life/Not Me,Death/Me",Alive,800,1,0,Life/Not Me,5
722,3,"Life/Not Me,Death/Me",Their,601,0,1,Life/Not Me,5
723,3,"Life/Not Me,Death/Me",Deceased,633,0,1,Death/Me,5
724,3,"Life/Not Me,Death/Me",Mine,607,0,1,Death/Me,5
725,3,"Life/Not Me,Death/Me",Myself,1335,0,1,Death/Me,5
726,3,"Life/Not Me,Death/Me",Other,1430,0,1,Life/Not Me,5
727,3,"Life/Not Me,Death/Me",Breathing,1001,0,1,Life/Not Me,5
728,3,"Life/Not Me,Death/Me",Dead,582,0,1,Death/Me,5
729,3,"Life/Not Me,Death/Me",Self,858,0,1,Death/Me,5
730,3,"Life/Not Me,Death/Me",Living,1294,1,0,Life/Not Me,5
731,3,"Life/Not Me,Death/Me",Other,909,0,1,Life/Not Me,5
732,3,"Life/Not Me,Death/Me",Die,709,1,0,Death/Me,5
733,3,"Life/Not Me,Death/Me",Them,927,0,1,Life/Not Me,5
734,3,"Life/Not Me,Death/Me",Thrive,1150,1,0,Life/Not Me,5
735,3,"Life/Not Me,Death/Me",Their,651,0,1,Life/Not Me,5
736,3,"Life/Not Me,Death/Me",Dead,490,0,1,Death/Me,5
737,3,"Life/Not Me,Death/Me",Thrive,754,0,1,Life/Not Me,5
738,3,"Life/Not Me,Death/Me",I,699,0,1,Death/Me,5
739,3,"Life/Not Me,Death/Me",They,494,0,1,Life/Not Me,5
740,4,"Death,Life",Alive,1002,0,1,Life,5
741,4,"Death,Life",Living,1197,0,1,Life,5
742,4,"Death,Life",Dead,671,0,1,Death,5
743,4,"Death,Life",Living,780,0,1,Life,5
744,4,"Death,Life",Breathing,570,0,1,Life,5
745,4,"Death,Life",Thrive,756,0,1,Life,5
746,4,"Death,Life",Alive,465,0,1,Life,5
747,4,"Death,Life",Suicide,657,0,1,Death,5
748,4,"Death,Life",Deceased,1172,0,1,Death,5
749,4,"Death,Life",Die,719,0,1,Death,5
750,4,"Death,Life",Die,405,0,1,Death,5
751,4,"Death,Life",Breathing,1550,0,1,Life,5
752,4,"Death,Life",Suicide,1682,0,1,Death,5
753,4,"Death,Life",Deceased,645,0,1,Death,5
754,4,"Death,Life",Deceased,1518,0,1,Death,5
755,4,"Death,Life",Dead,472,1,0,Death,5
756,4,"Death,Life",Thrive,811,0,1,Life,5
757,4,"Death,Life",Breathing,1222,0,1,Life,5
758,4,"Death,Life",Living,660,0,1,Life,5
759,4,"Death,Life",Dead,541,0,1,Death,5
760,4,"Death,Life",Alive,650,0,1,Life,5
761,4,"Death,Life",Thrive,1144,1,0,Life,5
762,4,"Death,Life",Alive,704,1,0,Life,5
763,4,"Death,Life",Breathing,726,0,1,Life,5
764,4,"Death,Life",Thrive,845,0,1,Life,5
765,4,"Death,Life",Suicide,1568,0,1,Death,5
766,4,"Death,Life",Die,830,0,1,Death,5
767,4,"Death,Life",Living,832,0,1,Life,5
768,4,"Death,Life",Dead,2078,0,1,Death,5
769,4,"Death,Life",Deceased,1339,0,1,Death,5
770,4,"Death,Life",Dead,1255,0,1,Death,5
771,4,"Death,Life",Alive,685,0,1,Life,5
772,4,"Death,Life",Living,485,1,0,Life,5
773,4,"Death,Life",Thrive,4081,0,1,Life,5
774,4,"Death,Life",Die,662,0,1,Death,5
775,4,"Death,Life",Suicide,477,0,1,Death,5
776,4,"Death,Life",Breathing,1075,0,1,Life,5
777,4,"Death,Life",Die,710,1,0,Death,5
778,4,"Death,Life",Deceased,797,0,1,Death,5
779,4,"Death,Life",Suicide,684,0,1,Death,5
780,5,"Death/Not Me,Life/Me",Them,598,0,1,Death/Not Me,5
781,5,"Death/Not Me,Life/Me",Alive,2230,0,1,Life/Me,5
782,5,"Death/Not Me,Life/Me",They,701,0,1,Death/Not Me,5
783,5,"Death/Not Me,Life/Me",Deceased,877,0,1,Death/Not Me,5
784,5,"Death/Not Me,Life/Me",Self,777,0,1,Life/Me,5
785,5,"Death/Not Me,Life/Me",Breathing,483,0,1,Life/Me,5
786,5,"Death/Not Me,Life/Me",Mine,572,0,1,Life/Me,5
787,5,"Death/Not Me,Life/Me",Dead,561,0,1,Death/Not Me,5
788,5,"Death/Not Me,Life/Me",I,749,0,1,Life/Me,5
789,5,"Death/Not Me,Life/Me",Suicide,1512,0,1,Death/Not Me,5
790,5,"Death/Not Me,Life/Me",Other,1749,0,1,Death/Not Me,5
791,5,"Death/Not Me,Life/Me",Die,430,0,1,Death/Not Me,5
792,5,"Death/Not Me,Life/Me",Their,1196,0,1,Death/Not Me,5
793,5,"Death/Not Me,Life/Me",Living,948,0,1,Life/Me,5
794,5,"Death/Not Me,Life/Me",Myself,597,0,1,Life/Me,5
795,5,"Death/Not Me,Life/Me",Thrive,765,0,1,Life/Me,5
796,5,"Death/Not Me,Life/Me",Other,602,0,1,Death/Not Me,5
797,5,"Death/Not Me,Life/Me",Thrive,598,1,0,Life/Me,5
798,5,"Death/Not Me,Life/Me",They,790,0,1,Death/Not Me,5
799,5,"Death/Not Me,Life/Me",Dead,544,0,1,Death/Not Me,5
800,6,"Death/Not Me,Life/Me",Other,772,0,1,Death/Not Me,5
801,6,"Death/Not Me,Life/Me",Alive,412,0,1,Life/Me,5
802,6,"Death/Not Me,Life/Me",Them,644,0,1,Death/Not Me,5
803,6,"Death/Not Me,Life/Me",Living,688,0,1,Life/Me,5
804,6,"Death/Not Me,Life/Me",Myself,887,0,1,Life/Me,5
805,6,"Death/Not Me,Life/Me",Dead,1085,0,1,Death/Not Me,5
806,6,"Death/Not Me,Life/Me",They,588,0,1,Death/Not Me,5
807,6,"Death/Not Me,Life/Me",Deceased,418,0,1,Death/Not Me,5
808,6,"Death/Not Me,Life/Me",Mine,1882,0,1,Life/Me,5
809,6,"Death/Not Me,Life/Me",Alive,1064,0,1,Life/Me,5
810,6,"Death/Not Me,Life/Me",Self,517,0,1,Life/Me,5
811,6,"Death/Not Me,Life/Me",Die,2388,0,1,Death/Not Me,5
812,6,"Death/Not Me,Life/Me",Die,737,0,1,Death/Not Me,5
813,6,"Death/Not Me,Life/Me",Other,777,0,1,Death/Not Me,5
814,6,"Death/Not Me,Life/Me",Their,1186,0,1,Death/Not Me,5
815,6,"Death/Not Me,Life/Me",Suicide,793,1,0,Death/Not Me,5
816,6,"Death/Not Me,Life/Me",I,889,0,1,Life/Me,5
817,6,"Death/Not Me,Life/Me",Breathing,456,0,1,Life/Me,5
818,6,"Death/Not Me,Life/Me",Myself,625,1,0,Life/Me,5
819,6,"Death/Not Me,Life/Me",Dead,651,0,1,Death/Not Me,5
820,6,"Death/Not Me,Life/Me",I,506,0,1,Life/Me,5
821,6,"Death/Not Me,Life/Me",Living,1569,0,1,Life/Me,5
822,6,"Death/Not Me,Life/Me",They,893,0,1,Death/Not Me,5
823,6,"Death/Not Me,Life/Me",Thrive,451,0,1,Life/Me,5
824,6,"Death/Not Me,Life/Me",I,566,0,1,Life/Me,5
825,6,"Death/Not Me,Life/Me",Suicide,714,0,1,Death/Not Me,5
826,6,"Death/Not Me,Life/Me",Breathing,580,1,0,Life/Me,5
827,6,"Death/Not Me,Life/Me",Alive,732,0,1,Life/Me,5
828,6,"Death/Not Me,Life/Me",Their,509,0,1,Death/Not Me,5
829,6,"Death/Not Me,Life/Me",Dead,982,0,1,Death/Not Me,5
830,6,"Death/Not Me,Life/Me",Myself,1332,0,1,Life/Me,5
831,6,"Death/Not Me,Life/Me",Deceased,496,0,1,Death/Not Me,5
832,6,"Death/Not Me,Life/Me",Self,1509,0,1,Life/Me,5
833,6,"Death/Not Me,Life/Me",Living,881,0,1,Life/Me,5
834,6,"Death/Not Me,Life/Me",Other,643,0,1,Death/Not Me,5
835,6,"Death/Not Me,Life/Me",Suicide,821,0,1,Death/Not Me,5
836,6,"Death/Not Me,Life/Me",Mine,1118,0,1,Life/Me,5
837,6,"Death/Not Me,Life/Me",Thrive,1303,0,1,Life/Me,5
838,6,"Death/Not Me,Life/Me",Them,1815,0,1,Death/Not Me,5
839,6,"Death/Not Me,Life/Me",They,535,0,1,Death/Not Me,5
840,0,"Death,Life",Suicide,599,0,1,Death,6
841,0,"Death,Life",Die,1358,0,1,Death,6
842,0,"Death,Life",Alive,603,0,1,Life,6
843,0,"Death,Life",Thrive,815,0,1,Life,6
844,0,"Death,Life",Deceased,1305,0,1,Death,6
845,0,"Death,Life",Breathing,1457,0,1,Life,6
846,0,"Death,Life",Dead,1272,0,1,Death,6
847,0,"Death,Life",Living,528,0,1,Life,6
848,0,"Death,Life",Die,572,0,1,Death,6
849,0,"Death,Life",Deceased,414,0,1,Death,6
850,0,"Death,Life",Breathing,552,0,1,Life,6
851,0,"Death,Life",Living,618,0,1,Life,6
852,0,"Death,Life",Thrive,1656,0,1,Life,6
853,0,"Death,Life",Dead,728,0,1,Death,6
854,0,"Death,Life",Suicide,540,0,1,Death,6
855,0,"Death,Life",Living,647,0,1,Life,6
856,0,"Death,Life",Die,613,0,1,Death,6
857,0,"Death,Life",Thrive,945,0,1,Life,6
858,0,"Death,Life",Alive,1036,0,1,Life,6
859,0,"Death,Life",Alive,626,0,1,Life,6
860,1,"Not Me,Me",Other,499,0,1,Not Me,6
861,1,"Not Me,Me",Self,631,0,1,Me,6
862,1,"Not Me,Me",I,688,0,1,Me,6
863,1,"Not Me,Me",I,614,0,1,Me,6
864,1,"Not Me,Me",Myself,635,1,0,Me,6
865,1,"Not Me,Me",They,449,0,1,Not Me,6
866,1,"Not Me,Me",Them,499,0,1,Not Me,6
867,1,"Not Me,Me",Mine,1269,1,0,Me,6
868,1,"Not Me,Me",They,695,0,1,Not Me,6
869,1,"Not Me,Me",Myself,502,0,1,Me,6
870,1,"Not Me,Me",Them,912,0,1,Not Me,6
871,1,"Not Me,Me",Self,1168,0,1,Me,6
872,1,"Not Me,Me",Other,869,0,1,Not Me,6
873,1,"Not Me,Me",Myself,1284,0,1,Me,6
874,1,"Not Me,Me",Mine,574,0,1,Me,6
875,1,"Not Me,Me",Them,1417,0,1,Not Me,6
876,1,"Not Me,Me",I,811,0,1,Me,6
877,1,"Not Me,Me",Their,532,1,0,Not Me,6
878,1,"Not Me,Me",They,941,0,1,Not Me,6
879,1,"Not Me,Me",Their,736,0,1,Not Me,6
880,2,"Death/Not Me,Life/Me",Deceased,833,0,1,Death/Not Me,6
881,2,"Death/Not Me,Life/Me",Suicide,982,0,1,Death/Not Me,6
882,2,"Death/Not Me,Life/Me",They,681,0,1,Death/Not Me,6
883,2,"Death/Not Me,Life/Me",Self,595,0,1,Life/Me,6
884,2,"Death/Not Me,Life/Me",Myself,644,0,1,Life/Me,6
885,2,"Death/Not Me,Life/Me",Dead,627,0,1,Death/Not Me,6
886,2,"Death/Not Me,Life/Me",I,766,0,1,Life/Me,6
887,2,"Death/Not Me,Life/Me",Living,743,0,1,Life/Me,6
888,2,"Death/Not Me,Life/Me",Alive,689,0,1,Life/Me,6
889,2,"Death/Not Me,Life/Me",Other,590,1,0,Death/Not Me,6
890,2,"Death/Not Me,Life/Me",Other,819,0,1,Death/Not Me,6
891,2,"Death/Not Me,Life/Me",Deceased,525,0,1,Death/Not Me,6
892,2,"Death/Not Me,Life/Me",Them,560,0,1,Death/Not Me,6
893,2,"Death/Not Me,Life/Me",Living,515,0,1,Life/Me,6
894,2,"Death/Not Me,Life/Me",Mine,546,0,1,Life/Me,6
895,2,"Death/Not Me,Life/Me",Breathing,1246,0,1,Life/Me,6
896,2,"Death/Not Me,Life/Me",Die,956,0,1,Death/Not Me,6
897,2,"Death/Not Me,Life/Me",Thrive,1299,0,1,Life/Me,6
898,2,"Death/Not Me,Life/Me",Their,435,0,1,Death/Not Me,6
899,2,"Death/Not Me,Life/Me",Them,808,0,1,Death/Not Me,6
900,3,"Death/Not Me,Life/Me",Their,882,0,1,Death/Not Me,6
901,3,"Death/Not Me,Life/Me",Breathing,831,0,1,Life/Me,6
902,3,"Death/Not Me,Life/Me",Mine,662,0,1,Life/Me,6
903,3,"Death/Not Me,Life/Me",Suicide,535,0,1,Death/Not Me,6
904,3,"Death/Not Me,Life/Me",Them,600,0,1,Death/Not Me,6
905,3,"Death/Not Me,Life/Me",Living,392,0,1,Life/Me,6
906,3,"Death/Not Me,Life/Me",Myself,659,1,0,Life/Me,6
907,3,"Death/Not Me,Life/Me",Die,595,0,1,Death/Not Me,6
908,3,"Death/Not Me,Life/Me",Dead,538,0,1,Death/Not Me,6
909,3,"Death/Not Me,Life/Me",I,1137,0,1,Life/Me,6
910,3,"Death/Not Me,Life/Me",Dead,1610,0,1,Death/Not Me,6
911,3,"Death/Not Me,Life/Me",Other,839,0,1,Death/Not Me,6
912,3,"Death/Not Me,Life/Me",Deceased,897,0,1,Death/Not Me,6
913,3,"Death/Not Me,Life/Me",Alive,2652,0,1,Life/Me,6
914,3,"Death/Not Me,Life/Me",Their,582,0,1,Death/Not Me,6
915,3,"Death/Not Me,Life/Me",Thrive,2010,0,1,Life/Me,6
916,3,"Death/Not Me,Life/Me",Myself,461,1,0,Life/Me,6
917,3,"Death/Not Me,Life/Me",Self,554,0,1,Life/Me,6
918,3,"Death/Not Me,Life/Me",Alive,1367,0,1,Life/Me,6
919,3,"Death/Not Me,Life/Me",They,681,1,0,Death/Not Me,6
920,3,"Death/Not Me,Life/Me",Thrive,584,0,1,Life/Me,6
921,3,"Death/Not Me,Life/Me",I,419,0,1,Life/Me,6
922,3,"Death/Not Me,Life/Me",Deceased,582,0,1,Death/Not Me,6
923,3,"Death/Not Me,Life/Me",I,1229,0,1,Life/Me,6
924,3,"Death/Not Me,Life/Me",Alive,813,1,0,Life/Me,6
925,3,"Death/Not Me,Life/Me",They,405,0,1,Death/Not Me,6
926,3,"Death/Not Me,Life/Me",Breathing,1247,0,1,Life/Me,6
927,3,"Death/Not Me,Life/Me",Other,587,0,1,Death/Not Me,6
928,3,"Death/Not Me,Life/Me",Self,893,0,1,Life/Me,6
929,3,"Death/Not Me,Life/Me",Their,873,0,1,Death/Not Me,6
930,3,"Death/Not Me,Life/Me",Deceased,715,0,1,Death/Not Me,6
931,3,"Death/Not Me,Life/Me",Other,526,0,1,Death/Not Me,6
932,3,"Death/Not Me,Life/Me",Dead,749,0,1,Death/Not Me,6
933,3,"Death/Not Me,Life/Me",Them,603,0,1,Death/Not Me,6
934,3,"Death/Not Me,Life/Me",Living,569,1,0,Life/Me,6
935,3,"Death/Not Me,Life/Me",Mine,1088,0,1,Life/Me,6
936,3,"Death/Not Me,Life/Me",Die,726,0,1,Death/Not Me,6
937,3,"Death/Not Me,Life/Me",Myself,521,0,1,Life/Me,6
938,3,"Death/Not Me,Life/Me",Thrive,1482,0,1,Life/Me,6
939,3,"Death/Not Me,Life/Me",Suicide,1296,0,1,Death/Not Me,6
940,4,"Life,Death",Die,781,1,0,Death,6
941,4,"Life,Death",Suicide,543,0,1,Death,6
942,4,"Life,Death",Alive,401,0,1,Life,6
943,4,"Life,Death",Thrive,522,0,1,Life,6
944,4,"Life,Death",Breathing,1513,0,1,Life,6
945,4,"Life,Death",Deceased,1109,0,1,Death,6
946,4,"Life,Death",Living,980,0,1,Life,6
947,4,"Life,Death",Breathing,646,0,1,Life,6
948,4,"Life,Death",Dead,979,0,1,Death,6
949,4,"Life,Death",Thrive,797,0,1,Life,6
950,4,"Life,Death",Alive,797,0,1,Life,6
951,4,"Life,Death",Suicide,468,0,1,Death,6
952,4,"Life,Death",Deceased,981,0,1,Death,6
953,4,"Life,Death",Deceased,868,0,1,Death,6
954,4,"Life,Death",Thrive,1099,0,1,Life,6
955,4,"Life,Death",Living,491,0,1,Life,6
956,4,"Life,Death",Breathing,405,0,1,Life,6
957,4,"Life,Death",Dead,608,0,1,Death,6
958,4,"Life,Death",Die,1637,0,1,Death,6
959,4,"Life,Death",Alive,670,0,1,Life,6
960,4,"Life,Death",Suicide,1275,1,0,Death,6
961,4,"Life,Death",Die,1662,0,1,Death,6
962,4,"Life,Death",Living,653,0,1,Life,6
963,4,"Life,Death",Breathing,644,0,1,Life,6
964,4,"Life,Death",Dead,1404,0,1,Death,6
965,4,"Life,Death",Die,1457,0,1,Death,6
966,4,"Life,Death",Dead,1014,0,1,Death,6
967,4,"Life,Death",Deceased,1182,0,1,Death,6
968,4,"Life,Death",Alive,573,1,0,Life,6
969,4,"Life,Death",Living,951,0,1,Life,6
970,4,"Life,Death",Breathing,844,0,1,Life,6
971,4,"Life,Death",Suicide,985,1,0,Death,6
972,4,"Life,Death",Living,527,0,1,Life,6
973,4,"Life,Death",Alive,824,0,1,Life,6
974,4,"Life,Death",Thrive,448,0,1,Life,6
975,4,"Life,Death",Die,830,0,1,Death,6
976,4,"Life,Death",Dead,600,0,1,Death,6
977,4,"Life,Death",Suicide,1173,1,0,Death,6
978,4,"Life,Death",Thrive,664,0,1,Life,6
979,4,"Life,Death",Deceased,1110,1,0,Death,6
980,5,"Life/Not Me,Death/Me",Thrive,611,0,1,Life/Not Me,6
981,5,"Life/Not Me,Death/Me",Dead,420,0,1,Death/Me,6
982,5,"Life/Not Me,Death/Me",Other,756,0,1,Life/Not Me,6
983,5,"Life/Not Me,Death/Me",Alive,1344,0,1,Life/Not Me,6
984,5,"Life/Not Me,Death/Me",Self,960,1,0,Death/Me,6
985,5,"Life/Not Me,Death/Me",They,1574,0,1,Life/Not Me,6
986,5,"Life/Not Me,Death/Me",Die,555,0,1,Death/Me,6
987,5,"Life/Not Me,Death/Me",Them,422,0,1,Life/Not Me,6
988,5,"Life/Not Me,Death/Me",Deceased,884,0,1,Death/Me,6
989,5,"Life/Not Me,Death/Me",Their,607,0,1,Life/Not Me,6
990,5,"Life/Not Me,Death/Me",Breathing,929,0,1,Life/Not Me,6
991,5,"Life/Not Me,Death/Me",Myself,669,0,1,Death/Me,6
992,5,"Life/Not Me,Death/Me",Living,1109,0,1,Life/Not Me,6
993,5,"Life/Not Me,Death/Me",I,740,1,0,Death/Me,6
994,5,"Life/Not Me,Death/Me",Suicide,468,0,1,Death/Me,6
995,5,"Life/Not Me,Death/Me",Them,664,0,1,Life/Not Me,6
996,5,"Life/Not Me,Death/Me",Thrive,737,1,0,Life/Not Me,6
997,5,"Life/Not Me,Death/Me",Mine,580,0,1,Death/Me,6
998,5,"Life/Not Me,Death/Me",Alive,486,0,1,Life/Not Me,6
999,5,"Life/Not Me,Death/Me",Mine,535,1,0,Death/Me,6
1000,6,"Life/Not Me,Death/Me",Self,1304,0,1,Death/Me,6
1001,6,"Life/Not Me,Death/Me",Breathing,614,0,1,Life/Not Me,6
1002,6,"Life/Not Me,Death/Me",Other,703,0,1,Life/Not Me,6
1003,6,"Life/Not Me,Death/Me",Alive,1012,1,0,Life/Not Me,6
1004,6,"Life/Not Me,Death/Me",I,1034,0,1,Death/Me,6
1005,6,"Life/Not Me,Death/Me",Suicide,570,0,1,Death/Me,6
1006,6,"Life/Not Me,Death/Me",They,617,0,1,Life/Not Me,6
1007,6,"Life/Not Me,Death/Me",Deceased,1796,0,1,Death/Me,6
1008,6,"Life/Not Me,Death/Me",Mine,535,0,1,Death/Me,6
1009,6,"Life/Not Me,Death/Me",Thrive,632,0,1,Life/Not Me,6
1010,6,"Life/Not Me,Death/Me",Myself,726,0,1,Death/Me,6
1011,6,"Life/Not Me,Death/Me",Dead,497,0,1,Death/Me,6
1012,6,"Life/Not Me,Death/Me",Them,1098,0,1,Life/Not Me,6
1013,6,"Life/Not Me,Death/Me",Living,1488,0,1,Life/Not Me,6
1014,6,"Life/Not Me,Death/Me",Their,2622,0,1,Life/Not Me,6
1015,6,"Life/Not Me,Death/Me",Die,742,0,1,Death/Me,6
1016,6,"Life/Not Me,Death/Me",Self,471,0,1,Death/Me,6
1017,6,"Life/Not Me,Death/Me",Myself,1166,0,1,Death/Me,6
1018,6,"Life/Not Me,Death/Me",Suicide,582,0,1,Death/Me,6
1019,6,"Life/Not Me,Death/Me",Myself,3038,1,0,Death/Me,6
1020,6,"Life/Not Me,Death/Me",Breathing,1170,0,1,Life/Not Me,6
1021,6,"Life/Not Me,Death/Me",Them,531,1,0,Life/Not Me,6
1022,6,"Life/Not Me,Death/Me",Dead,557,1,0,Death/Me,6
1023,6,"Life/Not Me,Death/Me",Other,1683,0,1,Life/Not Me,6
1024,6,"Life/Not Me,Death/Me",Living,990,0,1,Life/Not Me,6
1025,6,"Life/Not Me,Death/Me",Mine,516,1,0,Death/Me,6
1026,6,"Life/Not Me,Death/Me",Deceased,1363,1,0,Death/Me,6
1027,6,"Life/Not Me,Death/Me",I,2109,0,1,Death/Me,6
1028,6,"Life/Not Me,Death/Me",Alive,477,0,1,Life/Not Me,6
1029,6,"Life/Not Me,Death/Me",They,481,0,1,Life/Not Me,6
1030,6,"Life/Not Me,Death/Me",Thrive,785,0,1,Life/Not Me,6
1031,6,"Life/Not Me,Death/Me",Their,542,0,1,Life/Not Me,6
1032,6,"Life/Not Me,Death/Me",Die,679,0,1,Death/Me,6
1033,6,"Life/Not Me,Death/Me",Mine,785,1,0,Death/Me,6
1034,6,"Life/Not Me,Death/Me",Living,1224,0,1,Life/Not Me,6
1035,6,"Life/Not Me,Death/Me",Other,909,0,1,Life/Not Me,6
1036,6,"Life/Not Me,Death/Me",Die,900,1,0,Death/Me,6
1037,6,"Life/Not Me,Death/Me",Their,1275,0,1,Life/Not Me,6
1038,6,"Life/Not Me,Death/Me",Alive,489,0,1,Life/Not Me,6
1039,6,"Life/Not Me,Death/Me",Deceased,672,0,1,Death/Me,6
1040,0,"Life,Death",Dead,1840,0,1,Death,7
1041,0,"Life,Death",Living,696,0,1,Life,7
1042,0,"Life,Death",Suicide,913,0,1,Death,7
1043,0,"Life,Death",Die,701,0,1,Death,7
1044,0,"Life,Death",Deceased,454,0,1,Death,7
1045,0,"Life,Death",Alive,589,0,1,Life,7
1046,0,"Life,Death",Breathing,806,0,1,Life,7
1047,0,"Life,Death",Thrive,658,0,1,Life,7
1048,0,"Life,Death",Breathing,611,0,1,Life,7
1049,0,"Life,Death",Deceased,679,0,1,Death,7
1050,0,"Life,Death",Thrive,996,0,1,Life,7
1051,0,"Life,Death",Die,667,0,1,Death,7
1052,0,"Life,Death",Suicide,640,0,1,Death,7
1053,0,"Life,Death",Alive,973,0,1,Life,7
1054,0,"Life,Death",Living,623,0,1,Life,7
1055,0,"Life,Death",Breathing,1000,0,1,Life,7
1056,0,"Life,Death",Dead,536,0,1,Death,7
1057,0,"Life,Death",Suicide,663,1,0,Death,7
1058,0,"Life,Death",Die,1283,0,1,Death,7
1059,0,"Life,Death",Dead,552,0,1,Death,7
1060,1,"Not Me,Me",Myself,765,0,1,Me,7
1061,1,"Not Me,Me",I,1314,0,1,Me,7
1062,1,"Not Me,Me",Self,1317,0,1,Me,7
1063,1,"Not Me,Me",Other,439,0,1,Not Me,7
1064,1,"Not Me,Me",Their,587,0,1,Not Me,7
1065,1,"Not Me,Me",They,654,0,1,Not Me,7
1066,1,"Not Me,Me",Them,527,0,1,Not Me,7
1067,1,"Not Me,Me",Mine,2998,0,1,Me,7
1068,1,"Not Me,Me",Their,1148,0,1,Not Me,7
1069,1,"Not Me,Me",Myself,645,0,1,Me,7
1070,1,"Not Me,Me",Mine,566,0,1,Me,7
1071,1,"Not Me,Me",Self,570,0,1,Me,7
1072,1,"Not Me,Me",Their,1163,0,1,Not Me,7
1073,1,"Not Me,Me",Them,606,0,1,Not Me,7
1074,1,"Not Me,Me",They,1287,0,1,Not Me,7
1075,1,"Not Me,Me",I,481,0,1,Me,7
1076,1,"Not Me,Me",Other,720,0,1,Not Me,7
1077,1,"Not Me,Me",Self,537,0,1,Me,7
1078,1,"Not Me,Me",Them,423,0,1,Not Me,7
1079,1,"Not Me,Me",Other,755,0,1,Not Me,7
1080,2,"Life/Not Me,Death/Me",Mine,573,0,1,Death/Me,7
1081,2,"Life/Not Me,Death/Me",Breathing,3020,1,0,Life/Not Me,7
1082,2,"Life/Not Me,Death/Me",Other,1164,0,1,Life/Not Me,7
1083,2,"Life/Not Me,Death/Me",Alive,4881,0,1,Life/Not Me,7
1084,2,"Life/Not Me,Death/Me",They,617,0,1,Life/Not Me,7
1085,2,"Life/Not Me,Death/Me",Die,681,0,1,Death/Me,7
1086,2,"Life/Not Me,Death/Me",I,1142,0,1,Death/Me,7
1087,2,"Life/Not Me,Death/Me",Dead,614,0,1,Death/Me,7
1088,2,"Life/Not Me,Death/Me",Myself,715,0,1,Death/Me,7
1089,2,"Life/Not Me,Death/Me",Suicide,1081,0,1,Death/Me,7
1090,2,"Life/Not Me,Death/Me",Self,1877,0,1,Death/Me,7
1091,2,"Life/Not Me,Death/Me",Living,695,0,1,Life/Not Me,7
1092,2,"Life/Not Me,Death/Me",Their,799,0,1,Life/Not Me,7
1093,2,"Life/Not Me,Death/Me",Thrive,711,0,1,Life/Not Me,7
1094,2,"Life/Not Me,Death/Me",Them,1009,0,1,Life/Not Me,7
1095,2,"Life/Not Me,Death/Me",Deceased,545,0,1,Death/Me,7
1096,2,"Life/Not Me,Death/Me",I,583,0,1,Death/Me,7
1097,2,"Life/Not Me,Death/Me",Breathing,522,0,1,Life/Not Me,7
1098,2,"Life/Not Me,Death/Me",Their,800,0,1,Life/Not Me,7
1099,2,"Life/Not Me,Death/Me",Alive,867,0,1,Life/Not Me,7
1100,3,"Life/Not Me,Death/Me",Myself,689,0,1,Death/Me,7
1101,3,"Life/Not Me,Death/Me",Living,667,0,1,Life/Not Me,7
1102,3,"Life/Not Me,Death/Me",I,408,0,1,Death/Me,7
1103,3,"Life/Not Me,Death/Me",Alive,874,0,1,Life/Not Me,7
1104,3,"Life/Not Me,Death/Me",Their,950,0,1,Life/Not Me,7
1105,3,"Life/Not Me,Death/Me",Die,981,0,1,Death/Me,7
1106,3,"Life/Not Me,Death/Me",Myself,733,0,1,Death/Me,7
1107,3,"Life/Not Me,Death/Me",Thrive,668,0,1,Life/Not Me,7
1108,3,"Life/Not Me,Death/Me",Their,652,0,1,Life/Not Me,7
1109,3,"Life/Not Me,Death/Me",Breathing,541,0,1,Life/Not Me,7
1110,3,"Life/Not Me,Death/Me",They,641,0,1,Life/Not Me,7
1111,3,"Life/Not Me,Death/Me",Die,438,0,1,Death/Me,7
1112,3,"Life/Not Me,Death/Me",I,623,0,1,Death/Me,7
1113,3,"Life/Not Me,Death/Me",Deceased,892,0,1,Death/Me,7
1114,3,"Life/Not Me,Death/Me",Them,1038,0,1,Life/Not Me,7
1115,3,"Life/Not Me,Death/Me",Mine,535,0,1,Death/Me,7
1116,3,"Life/Not Me,Death/Me",Thrive,833,0,1,Life/Not Me,7
1117,3,"Life/Not Me,Death/Me",Self,675,0,1,Death/Me,7
1118,3,"Life/Not Me,Death/Me",Thrive,702,0,1,Life/Not Me,7
1119,3,"Life/Not Me,Death/Me",Them,657,0,1,Life/Not Me,7
1120,3,"Life/Not Me,Death/Me",Living,1166,0,1,Life/Not Me,7
1121,3,"Life/Not Me,Death/Me",Mine,1323,0,1,Death/Me,7
1122,3,"Life/Not Me,Death/Me",Die,493,0,1,Death/Me,7
1123,3,"Life/Not Me,Death/Me",They,533,0,1,Life/Not Me,7
1124,3,"Life/Not Me,Death/Me",Deceased,702,0,1,Death/Me,7
1125,3,"Life/Not Me,Death/Me",Self,626,0,1,Death/Me,7
1126,3,"Life/Not Me,Death/Me",Suicide,1148,0,1,Death/Me,7
1127,3,"Life/Not Me,Death/Me",Other,1652,0,1,Life/Not Me,7
1128,3,"Life/Not Me,Death/Me",I,532,0,1,Death/Me,7
1129,3,"Life/Not Me,Death/Me",Breathing,902,0,1,Life/Not Me,7
1130,3,"Life/Not Me,Death/Me",Their,1623,0,1,Life/Not Me,7
1131,3,"Life/Not Me,Death/Me",Dead,844,0,1,Death/Me,7
1132,3,"Life/Not Me,Death/Me",Myself,1116,0,1,Death/Me,7
1133,3,"Life/Not Me,Death/Me",Deceased,1344,0,1,Death/Me,7
1134,3,"Life/Not Me,Death/Me",Other,384,0,1,Life/Not Me,7
1135,3,"Life/Not Me,Death/Me",Breathing,1742,0,1,Life/Not Me,7
1136,3,"Life/Not Me,Death/Me",They,565,0,1,Life/Not Me,7
1137,3,"Life/Not Me,Death/Me",Suicide,560,0,1,Death/Me,7
1138,3,"Life/Not Me,Death/Me",Alive,483,0,1,Life/Not Me,7
1139,3,"Life/Not Me,Death/Me",Dead,657,0,1,Death/Me,7
1140,4,"Death,Life",Deceased,403,0,1,Death,7
1141,4,"Death,Life",Dead,574,0,1,Death,7
1142,4,"Death,Life",Suicide,929,0,1,Death,7
1143,4,"Death,Life",Thrive,1443,0,1,Life,7
1144,4,"Death,Life",Breathing,679,0,1,Life,7
1145,4,"Death,Life",Dead,797,0,1,Death,7
1146,4,"Death,Life",Alive,746,0,1,Life,7
1147,4,"Death,Life",Alive,1168,0,1,Life,7
1148,4,"Death,Life",Breathing,613,0,1,Life,7
1149,4,"Death,Life",Living,623,0,1,Life,7
1150,4,"Death,Life",Thrive,658,0,1,Life,7
1151,4,"Death,Life",Die,1556,0,1,Death,7
1152,4,"Death,Life",Die,652,0,1,Death,7
1153,4,"Death,Life",Suicide,1097,0,1,Death,7
1154,4,"Death,Life",Suicide,1354,0,1,Death,7
1155,4,"Death,Life",Alive,716,0,1,Life,7
1156,4,"Death,Life",Suicide,1428,0,1,Death,7
1157,4,"Death,Life",Thrive,957,0,1,Life,7
1158,4,"Death,Life",Deceased,523,0,1,Death,7
1159,4,"Death,Life",Dead,992,0,1,Death,7
1160,4,"Death,Life",Living,741,0,1,Life,7
1161,4,"Death,Life",Thrive,910,0,1,Life,7
1162,4,"Death,Life",Dead,884,0,1,Death,7
1163,4,"Death,Life",Alive,922,0,1,Life,7
1164,4,"Death,Life",Die,849,0,1,Death,7
1165,4,"Death,Life",Deceased,2074,0,1,Death,7
1166,4,"Death,Life",Breathing,992,0,1,Life,7
1167,4,"Death,Life",Suicide,597,0,1,Death,7
1168,4,"Death,Life",Living,539,0,1,Life,7
1169,4,"Death,Life",Breathing,85,0,1,Life,7
1170,4,"Death,Life",Thrive,637,0,1,Life,7
1171,4,"Death,Life",Deceased,1401,0,1,Death,7
1172,4,"Death,Life",Dead,403,0,1,Death,7
1173,4,"Death,Life",Alive,1183,0,1,Life,7
1174,4,"Death,Life",Die,1170,0,1,Death,7
1175,4,"Death,Life",Deceased,1334,0,1,Death,7
1176,4,"Death,Life",Living,467,0,1,Life,7
1177,4,"Death,Life",Breathing,1085,0,1,Life,7
1178,4,"Death,Life",Living,546,0,1,Life,7
1179,4,"Death,Life",Die,467,0,1,Death,7
1180,5,"Death/Not Me,Life/Me",Deceased,767,0,1,Death/Not Me,7
1181,5,"Death/Not Me,Life/Me",Alive,455,0,1,Life/Me,7
1182,5,"Death/Not Me,Life/Me",Their,743,0,1,Death/Not Me,7
1183,5,"Death/Not Me,Life/Me",Living,633,0,1,Life/Me,7
1184,5,"Death/Not Me,Life/Me",Mine,994,0,1,Life/Me,7
1185,5,"Death/Not Me,Life/Me",They,631,0,1,Death/Not Me,7
1186,5,"Death/Not Me,Life/Me",Breathing,542,0,1,Life/Me,7
1187,5,"Death/Not Me,Life/Me",I,563,0,1,Life/Me,7
1188,5,"Death/Not Me,Life/Me",Die,434,0,1,Death/Not Me,7
1189,5,"Death/Not Me,Life/Me",Myself,603,0,1,Life/Me,7
1190,5,"Death/Not Me,Life/Me",Other,408,0,1,Death/Not Me,7
1191,5,"Death/Not Me,Life/Me",Suicide,1720,0,1,Death/Not Me,7
1192,5,"Death/Not Me,Life/Me",Them,577,0,1,Death/Not Me,7
1193,5,"Death/Not Me,Life/Me",Dead,927,0,1,Death/Not Me,7
1194,5,"Death/Not Me,Life/Me",Mine,659,0,1,Life/Me,7
1195,5,"Death/Not Me,Life/Me",Alive,841,0,1,Life/Me,7
1196,5,"Death/Not Me,Life/Me",Their,2709,0,1,Death/Not Me,7
1197,5,"Death/Not Me,Life/Me",Thrive,1230,0,1,Life/Me,7
1198,5,"Death/Not Me,Life/Me",Self,982,0,1,Life/Me,7
1199,5,"Death/Not Me,Life/Me",Living,613,0,1,Life/Me,7
1200,6,"Death/Not Me,Life/Me",Deceased,973,0,1,Death/Not Me,7
1201,6,"Death/Not Me,Life/Me",Living,648,0,1,Life/Me,7
1202,6,"Death/Not Me,Life/Me",Myself,918,0,1,Life/Me,7
1203,6,"Death/Not Me,Life/Me",Suicide,754,0,1,Death/Not Me,7
1204,6,"Death/Not Me,Life/Me",Mine,471,0,1,Life/Me,7
1205,6,"Death/Not Me,Life/Me",Thrive,1683,1,0,Life/Me,7
1206,6,"Death/Not Me,Life/Me",They,626,0,1,Death/Not Me,7
1207,6,"Death/Not Me,Life/Me",Die,1323,0,1,Death/Not Me,7
1208,6,"Death/Not Me,Life/Me",I,544,0,1,Life/Me,7
1209,6,"Death/Not Me,Life/Me",Deceased,947,0,1,Death/Not Me,7
1210,6,"Death/Not Me,Life/Me",Other,829,0,1,Death/Not Me,7
1211,6,"Death/Not Me,Life/Me",Them,451,0,1,Death/Not Me,7
1212,6,"Death/Not Me,Life/Me",Alive,659,0,1,Life/Me,7
1213,6,"Death/Not Me,Life/Me",Breathing,1153,1,0,Life/Me,7
1214,6,"Death/Not Me,Life/Me",Their,1041,0,1,Death/Not Me,7
1215,6,"Death/Not Me,Life/Me",Dead,398,0,1,Death/Not Me,7
1216,6,"Death/Not Me,Life/Me",I,489,0,1,Life/Me,7
1217,6,"Death/Not Me,Life/Me",Thrive,790,0,1,Life/Me,7
1218,6,"Death/Not Me,Life/Me",Mine,574,0,1,Life/Me,7
1219,6,"Death/Not Me,Life/Me",Suicide,1024,0,1,Death/Not Me,7
1220,6,"Death/Not Me,Life/Me",Other,765,0,1,Death/Not Me,7
1221,6,"Death/Not Me,Life/Me",Breathing,480,0,1,Life/Me,7
1222,6,"Death/Not Me,Life/Me",Self,372,0,1,Life/Me,7
1223,6,"Death/Not Me,Life/Me",Suicide,558,0,1,Death/Not Me,7
1224,6,"Death/Not Me,Life/Me",Their,1163,0,1,Death/Not Me,7
1225,6,"Death/Not Me,Life/Me",Other,676,0,1,Death/Not Me,7
1226,6,"Death/Not Me,Life/Me",Their,873,0,1,Death/Not Me,7
1227,6,"Death/Not Me,Life/Me",Myself,1020,0,1,Life/Me,7
1228,6,"Death/Not Me,Life/Me",Dead,993,0,1,Death/Not Me,7
1229,6,"Death/Not Me,Life/Me",Them,1268,1,0,Death/Not Me,7
1230,6,"Death/Not Me,Life/Me",Breathing,1314,0,1,Life/Me,7
1231,6,"Death/Not Me,Life/Me",Mine,1585,1,0,Life/Me,7
1232,6,"Death/Not Me,Life/Me",Alive,582,1,0,Life/Me,7
1233,6,"Death/Not Me,Life/Me",I,614,0,1,Life/Me,7
1234,6,"Death/Not Me,Life/Me",Deceased,605,0,1,Death/Not Me,7
1235,6,"Death/Not Me,Life/Me",Self,729,0,1,Life/Me,7
1236,6,"Death/Not Me,Life/Me",Thrive,706,1,0,Life/Me,7
1237,6,"Death/Not Me,Life/Me",They,474,0,1,Death/Not Me,7
1238,6,"Death/Not Me,Life/Me",Living,787,0,1,Life/Me,7
1239,6,"Death/Not Me,Life/Me",Die,615,0,1,Death/Not Me,7
1240,0,"Death,Life",Thrive,751,0,1,Life,8
1241,0,"Death,Life",Die,1964,0,1,Death,8
1242,0,"Death,Life",Breathing,588,0,1,Life,8
1243,0,"Death,Life",Alive,612,0,1,Life,8
1244,0,"Death,Life",Deceased,837,0,1,Death,8
1245,0,"Death,Life",Dead,2033,0,1,Death,8
1246,0,"Death,Life",Suicide,788,0,1,Death,8
1247,0,"Death,Life",Living,681,0,1,Life,8
1248,0,"Death,Life",Thrive,478,0,1,Life,8
1249,0,"Death,Life",Breathing,602,0,1,Life,8
1250,0,"Death,Life",Die,437,0,1,Death,8
1251,0,"Death,Life",Deceased,1108,0,1,Death,8
1252,0,"Death,Life",Alive,653,0,1,Life,8
1253,0,"Death,Life",Dead,470,0,1,Death,8
1254,0,"Death,Life",Suicide,711,0,1,Death,8
1255,0,"Death,Life",Living,934,0,1,Life,8
1256,0,"Death,Life",Breathing,596,0,1,Life,8
1257,0,"Death,Life",Dead,1685,0,1,Death,8
1258,0,"Death,Life",Living,622,0,1,Life,8
1259,0,"Death,Life",Alive,527,0,1,Life,8
1260,1,"Not Me,Me",Myself,386,0,1,Me,8
1261,1,"Not Me,Me",They,1222,0,1,Not Me,8
1262,1,"Not Me,Me",Myself,539,1,0,Me,8
1263,1,"Not Me,Me",Other,682,0,1,Not Me,8
1264,1,"Not Me,Me",Their,915,0,1,Not Me,8
1265,1,"Not Me,Me",Mine,784,0,1,Me,8
1266,1,"Not Me,Me",Mine,605,0,1,Me,8
1267,1,"Not Me,Me",Their,690,0,1,Not Me,8
1268,1,"Not Me,Me",I,894,0,1,Me,8
1269,1,"Not Me,Me",Myself,720,0,1,Me,8
1270,1,"Not Me,Me",Their,589,0,1,Not Me,8
1271,1,"Not Me,Me",They,577,0,1,Not Me,8
1272,1,"Not Me,Me",Self,917,0,1,Me,8
1273,1,"Not Me,Me",Them,611,0,1,Not Me,8
1274,1,"Not Me,Me",Other,1297,0,1,Not Me,8
1275,1,"Not Me,Me",Mine,633,0,1,Me,8
1276,1,"Not Me,Me",I,370,0,1,Me,8
1277,1,"Not Me,Me",Them,427,0,1,Not Me,8
1278,1,"Not Me,Me",Other,648,0,1,Not Me,8
1279,1,"Not Me,Me",Self,762,0,1,Me,8
1280,2,"Death/Not Me,Life/Me",Mine,1002,0,1,Life/Me,8
1281,2,"Death/Not Me,Life/Me",Thrive,1154,0,1,Life/Me,8
1282,2,"Death/Not Me,Life/Me",I,529,0,1,Life/Me,8
1283,2,"Death/Not Me,Life/Me",Dead,939,0,1,Death/Not Me,8
1284,2,"Death/Not Me,Life/Me",Their,1670,0,1,Death/Not Me,8
1285,2,"Death/Not Me,Life/Me",Die,945,0,1,Death/Not Me,8
1286,2,"Death/Not Me,Life/Me",Them,452,0,1,Death/Not Me,8
1287,2,"Death/Not Me,Life/Me",Alive,1231,0,1,Life/Me,8
1288,2,"Death/Not Me,Life/Me",They,3003,0,1,Death/Not Me,8
1289,2,"Death/Not Me,Life/Me",Deceased,555,0,1,Death/Not Me,8
1290,2,"Death/Not Me,Life/Me",Self,1367,0,1,Life/Me,8
1291,2,"Death/Not Me,Life/Me",Living,671,0,1,Life/Me,8
1292,2,"Death/Not Me,Life/Me",Other,797,0,1,Death/Not Me,8
1293,2,"Death/Not Me,Life/Me",Breathing,717,0,1,Life/Me,8
1294,2,"Death/Not Me,Life/Me",Myself,431,0,1,Life/Me,8
1295,2,"Death/Not Me,Life/Me",Suicide,646,0,1,Death/Not Me,8
1296,2,"Death/Not Me,Life/Me",Their,442,0,1,Death/Not Me,8
1297,2,"Death/Not Me,Life/Me",Myself,961,0,1,Life/Me,8
1298,2,"Death/Not Me,Life/Me",Thrive,521,0,1,Life/Me,8
1299,2,"Death/Not Me,Life/Me",Dead,713,0,1,Death/Not Me,8
1300,3,"Death/Not Me,Life/Me",Breathing,731,0,1,Life/Me,8
1301,3,"Death/Not Me,Life/Me",I,871,0,1,Life/Me,8
1302,3,"Death/Not Me,Life/Me",Deceased,546,0,1,Death/Not Me,8
1303,3,"Death/Not Me,Life/Me",Other,571,0,1,Death/Not Me,8
1304,3,"Death/Not Me,Life/Me",Alive,701,0,1,Life/Me,8
1305,3,"Death/Not Me,Life/Me",Their,1498,0,1,Death/Not Me,8
1306,3,"Death/Not Me,Life/Me",Suicide,548,0,1,Death/Not Me,8
1307,3,"Death/Not Me,Life/Me",Other,451,0,1,Death/Not Me,8
1308,3,"Death/Not Me,Life/Me",Myself,505,0,1,Life/Me,8
1309,3,"Death/Not Me,Life/Me",Thrive,998,1,0,Life/Me,8
1310,3,"Death/Not Me,Life/Me",Them,356,0,1,Death/Not Me,8
1311,3,"Death/Not Me,Life/Me",Breathing,495,0,1,Life/Me,8
1312,3,"Death/Not Me,Life/Me",Self,867,0,1,Life/Me,8
1313,3,"Death/Not Me,Life/Me",Deceased,638,1,0,Death/Not Me,8
1314,3,"Death/Not Me,Life/Me",Myself,741,0,1,Life/Me,8
1315,3,"Death/Not Me,Life/Me",Living,760,0,1,Life/Me,8
1316,3,"Death/Not Me,Life/Me",Die,423,0,1,Death/Not Me,8
1317,3,"Death/Not Me,Life/Me",Thrive,2075,0,1,Life/Me,8
1318,3,"Death/Not Me,Life/Me",They,832,0,1,Death/Not Me,8
1319,3,"Death/Not Me,Life/Me",I,736,0,1,Life/Me,8
1320,3,"Death/Not Me,Life/Me",Living,718,0,1,Life/Me,8
1321,3,"Death/Not Me,Life/Me",Them,555,0,1,Death/Not Me,8
1322,3,"Death/Not Me,Life/Me",Breathing,783,0,1,Life/Me,8
1323,3,"Death/Not Me,Life/Me",Their,1497,0,1,Death/Not Me,8
1324,3,"Death/Not Me,Life/Me",Suicide,528,0,1,Death/Not Me,8
1325,3,"Death/Not Me,Life/Me",Die,853,0,1,Death/Not Me,8
1326,3,"Death/Not Me,Life/Me",Self,2490,0,1,Life/Me,8
1327,3,"Death/Not Me,Life/Me",Alive,2967,0,1,Life/Me,8
1328,3,"Death/Not Me,Life/Me",Mine,614,0,1,Life/Me,8
1329,3,"Death/Not Me,Life/Me",Myself,757,0,1,Life/Me,8
1330,3,"Death/Not Me,Life/Me",Dead,943,0,1,Death/Not Me,8
1331,3,"Death/Not Me,Life/Me",Die,592,0,1,Death/Not Me,8
1332,3,"Death/Not Me,Life/Me",Mine,594,0,1,Life/Me,8
1333,3,"Death/Not Me,Life/Me",Dead,854,0,1,Death/Not Me,8
1334,3,"Death/Not Me,Life/Me",Them,670,0,1,Death/Not Me,8
1335,3,"Death/Not Me,Life/Me",Self,663,0,1,Life/Me,8
1336,3,"Death/Not Me,Life/Me",They,626,0,1,Death/Not Me,8
1337,3,"Death/Not Me,Life/Me",Thrive,587,0,1,Life/Me,8
1338,3,"Death/Not Me,Life/Me",Other,1920,0,1,Death/Not Me,8
1339,3,"Death/Not Me,Life/Me",Deceased,620,0,1,Death/Not Me,8
1340,4,"Life,Death",Suicide,719,0,1,Death,8
1341,4,"Life,Death",Dead,1155,0,1,Death,8
1342,4,"Life,Death",Suicide,602,0,1,Death,8
1343,4,"Life,Death",Thrive,841,0,1,Life,8
1344,4,"Life,Death",Breathing,870,0,1,Life,8
1345,4,"Life,Death",Deceased,718,0,1,Death,8
1346,4,"Life,Death",Dead,1507,0,1,Death,8
1347,4,"Life,Death",Die,519,0,1,Death,8
1348,4,"Life,Death",Living,601,0,1,Life,8
1349,4,"Life,Death",Alive,2449,0,1,Life,8
1350,4,"Life,Death",Living,1831,0,1,Life,8
1351,4,"Life,Death",Alive,2303,0,1,Life,8
1352,4,"Life,Death",Dead,457,0,1,Death,8
1353,4,"Life,Death",Die,681,0,1,Death,8
1354,4,"Life,Death",Deceased,1041,0,1,Death,8
1355,4,"Life,Death",Thrive,821,0,1,Life,8
1356,4,"Life,Death",Alive,515,0,1,Life,8
1357,4,"Life,Death",Deceased,692,0,1,Death,8
1358,4,"Life,Death",Die,1119,0,1,Death,8
1359,4,"Life,Death",Thrive,500,0,1,Life,8
1360,4,"Life,Death",Alive,750,0,1,Life,8
1361,4,"Life,Death",Breathing,691,0,1,Life,8
1362,4,"Life,Death",Deceased,495,0,1,Death,8
1363,4,"Life,Death",Thrive,1207,0,1,Life,8
1364,4,"Life,Death",Living,881,0,1,Life,8
1365,4,"Life,Death",Die,1111,0,1,Death,8
1366,4,"Life,Death",Suicide,1444,0,1,Death,8
1367,4,"Life,Death",Breathing,810,0,1,Life,8
1368,4,"Life,Death",Dead,507,0,1,Death,8
1369,4,"Life,Death",Dead,652,0,1,Death,8
1370,4,"Life,Death",Die,682,0,1,Death,8
1371,4,"Life,Death",Deceased,646,0,1,Death,8
1372,4,"Life,Death",Suicide,1453,0,1,Death,8
1373,4,"Life,Death",Breathing,463,0,1,Life,8
1374,4,"Life,Death",Thrive,556,0,1,Life,8
1375,4,"Life,Death",Alive,486,0,1,Life,8
1376,4,"Life,Death",Breathing,545,0,1,Life,8
1377,4,"Life,Death",Living,1047,0,1,Life,8
1378,4,"Life,Death",Suicide,649,0,1,Death,8
1379,4,"Life,Death",Living,544,0,1,Life,8
1380,5,"Life/Not Me,Death/Me",Other,1089,0,1,Life/Not Me,8
1381,5,"Life/Not Me,Death/Me",Them,2283,0,1,Life/Not Me,8
1382,5,"Life/Not Me,Death/Me",Dead,988,0,1,Death/Me,8
1383,5,"Life/Not Me,Death/Me",Self,1350,0,1,Death/Me,8
1384,5,"Life/Not Me,Death/Me",Deceased,552,0,1,Death/Me,8
1385,5,"Life/Not Me,Death/Me",Mine,606,1,0,Death/Me,8
1386,5,"Life/Not Me,Death/Me",Breathing,578,1,0,Life/Not Me,8
1387,5,"Life/Not Me,Death/Me",Their,398,0,1,Life/Not Me,8
1388,5,"Life/Not Me,Death/Me",Living,1178,0,1,Life/Not Me,8
1389,5,"Life/Not Me,Death/Me",They,468,0,1,Life/Not Me,8
1390,5,"Life/Not Me,Death/Me",Breathing,1523,0,1,Life/Not Me,8
1391,5,"Life/Not Me,Death/Me",I,773,0,1,Death/Me,8
1392,5,"Life/Not Me,Death/Me",Living,1758,0,1,Life/Not Me,8
1393,5,"Life/Not Me,Death/Me",Alive,700,0,1,Life/Not Me,8
1394,5,"Life/Not Me,Death/Me",They,639,0,1,Life/Not Me,8
1395,5,"Life/Not Me,Death/Me",Die,440,0,1,Death/Me,8
1396,5,"Life/Not Me,Death/Me",Myself,1954,0,1,Death/Me,8
1397,5,"Life/Not Me,Death/Me",Suicide,1213,0,1,Death/Me,8
1398,5,"Life/Not Me,Death/Me",I,824,1,0,Death/Me,8
1399,5,"Life/Not Me,Death/Me",Thrive,1283,0,1,Life/Not Me,8
1400,6,"Life/Not Me,Death/Me",Mine,1549,0,1,Death/Me,8
1401,6,"Life/Not Me,Death/Me",Their,797,0,1,Life/Not Me,8
1402,6,"Life/Not Me,Death/Me",Suicide,1002,1,0,Death/Me,8
1403,6,"Life/Not Me,Death/Me",Breathing,526,0,1,Life/Not Me,8
1404,6,"Life/Not Me,Death/Me",Suicide,614,0,1,Death/Me,8
1405,6,"Life/Not Me,Death/Me",Them,862,0,1,Life/Not Me,8
1406,6,"Life/Not Me,Death/Me",Breathing,817,0,1,Life/Not Me,8
1407,6,"Life/Not Me,Death/Me",Self,548,0,1,Death/Me,8
1408,6,"Life/Not Me,Death/Me",Myself,1366,0,1,Death/Me,8
1409,6,"Life/Not Me,Death/Me",Thrive,929,0,1,Life/Not Me,8
1410,6,"Life/Not Me,Death/Me",Deceased,1572,0,1,Death/Me,8
1411,6,"Life/Not Me,Death/Me",Dead,1502,0,1,Death/Me,8
1412,6,"Life/Not Me,Death/Me",Them,505,0,1,Life/Not Me,8
1413,6,"Life/Not Me,Death/Me",Mine,785,0,1,Death/Me,8
1414,6,"Life/Not Me,Death/Me",Self,455,0,1,Death/Me,8
1415,6,"Life/Not Me,Death/Me",They,549,0,1,Life/Not Me,8
1416,6,"Life/Not Me,Death/Me",Their,678,0,1,Life/Not Me,8
1417,6,"Life/Not Me,Death/Me",Thrive,785,0,1,Life/Not Me,8
1418,6,"Life/Not Me,Death/Me",I,1106,0,1,Death/Me,8
1419,6,"Life/Not Me,Death/Me",Alive,585,0,1,Life/Not Me,8
1420,6,"Life/Not Me,Death/Me",They,485,0,1,Life/Not Me,8
1421,6,"Life/Not Me,Death/Me",Die,1334,0,1,Death/Me,8
1422,6,"Life/Not Me,Death/Me",Other,626,0,1,Life/Not Me,8
1423,6,"Life/Not Me,Death/Me",Suicide,2352,1,0,Death/Me,8
1424,6,"Life/Not Me,Death/Me",Them,751,0,1,Life/Not Me,8
1425,6,"Life/Not Me,Death/Me",Living,565,1,0,Life/Not Me,8
1426,6,"Life/Not Me,Death/Me",Myself,583,0,1,Death/Me,8
1427,6,"Life/Not Me,Death/Me",Deceased,1457,0,1,Death/Me,8
1428,6,"Life/Not Me,Death/Me",Breathing,626,0,1,Life/Not Me,8
1429,6,"Life/Not Me,Death/Me",Other,3853,0,1,Life/Not Me,8
1430,6,"Life/Not Me,Death/Me",Alive,518,0,1,Life/Not Me,8
1431,6,"Life/Not Me,Death/Me",I,626,0,1,Death/Me,8
1432,6,"Life/Not Me,Death/Me",Die,606,0,1,Death/Me,8
1433,6,"Life/Not Me,Death/Me",Myself,385,0,1,Death/Me,8
1434,6,"Life/Not Me,Death/Me",Living,444,0,1,Life/Not Me,8
1435,6,"Life/Not Me,Death/Me",Their,812,0,1,Life/Not Me,8
1436,6,"Life/Not Me,Death/Me",Deceased,1465,1,0,Death/Me,8
1437,6,"Life/Not Me,Death/Me",Thrive,590,0,1,Life/Not Me,8
1438,6,"Life/Not Me,Death/Me",Dead,1453,1,0,Death/Me,8
1439,6,"Life/Not Me,Death/Me",Mine,662,0,1,Death/Me,8
1440,0,"Death,Life",Alive,691,0,1,Life,9
1441,0,"Death,Life",Thrive,497,0,1,Life,9
1442,0,"Death,Life",Die,1029,0,1,Death,9
1443,0,"Death,Life",Breathing,619,0,1,Life,9
1444,0,"Death,Life",Suicide,1210,0,1,Death,9
1445,0,"Death,Life",Dead,1104,0,1,Death,9
1446,0,"Death,Life",Suicide,654,0,1,Death,9
1447,0,"Death,Life",Dead,548,0,1,Death,9
1448,0,"Death,Life",Die,524,0,1,Death,9
1449,0,"Death,Life",Living,689,0,1,Life,9
1450,0,"Death,Life",Die,1413,0,1,Death,9
1451,0,"Death,Life",Deceased,388,0,1,Death,9
1452,0,"Death,Life",Suicide,856,0,1,Death,9
1453,0,"Death,Life",Breathing,797,0,1,Life,9
1454,0,"Death,Life",Living,539,0,1,Life,9
1455,0,"Death,Life",Dead,691,0,1,Death,9
1456,0,"Death,Life",Alive,397,0,1,Life,9
1457,0,"Death,Life",Thrive,1329,1,0,Life,9
1458,0,"Death,Life",Breathing,664,1,0,Life,9
1459,0,"Death,Life",Deceased,611,0,1,Death,9
1460,1,"Not Me,Me",Them,510,0,1,Not Me,9
1461,1,"Not Me,Me",Their,1011,0,1,Not Me,9
1462,1,"Not Me,Me",They,575,0,1,Not Me,9
1463,1,"Not Me,Me",Myself,494,0,1,Me,9
1464,1,"Not Me,Me",Other,931,0,1,Not Me,9
1465,1,"Not Me,Me",Other,879,0,1,Not Me,9
1466,1,"Not Me,Me",Mine,409,0,1,Me,9
1467,1,"Not Me,Me",Self,531,0,1,Me,9
1468,1,"Not Me,Me",Myself,760,0,1,Me,9
1469,1,"Not Me,Me",I,754,0,1,Me,9
1470,1,"Not Me,Me",Self,1073,0,1,Me,9
1471,1,"Not Me,Me",Them,728,0,1,Not Me,9
1472,1,"Not Me,Me",Their,656,0,1,Not Me,9
1473,1,"Not Me,Me",They,1198,0,1,Not Me,9
1474,1,"Not Me,Me",I,701,0,1,Me,9
1475,1,"Not Me,Me",Mine,484,0,1,Me,9
1476,1,"Not Me,Me",Mine,685,0,1,Me,9
1477,1,"Not Me,Me",Their,546,0,1,Not Me,9
1478,1,"Not Me,Me",Them,690,0,1,Not Me,9
1479,1,"Not Me,Me",Other,810,0,1,Not Me,9
1480,2,"Death/Not Me,Life/Me",Their,545,0,1,Death/Not Me,9
1481,2,"Death/Not Me,Life/Me",Breathing,608,0,1,Life/Me,9
1482,2,"Death/Not Me,Life/Me",Other,534,1,0,Death/Not Me,9
1483,2,"Death/Not Me,Life/Me",Deceased,3630,0,1,Death/Not Me,9
1484,2,"Death/Not Me,Life/Me",Mine,829,0,1,Life/Me,9
1485,2,"Death/Not Me,Life/Me",Living,539,0,1,Life/Me,9
1486,2,"Death/Not Me,Life/Me",Myself,777,0,1,Life/Me,9
1487,2,"Death/Not Me,Life/Me",Suicide,403,0,1,Death/Not Me,9
1488,2,"Death/Not Me,Life/Me",Self,566,0,1,Life/Me,9
1489,2,"Death/Not Me,Life/Me",Die,2185,0,1,Death/Not Me,9
1490,2,"Death/Not Me,Life/Me",Thrive,1788,0,1,Life/Me,9
1491,2,"Death/Not Me,Life/Me",They,644,0,1,Death/Not Me,9
1492,2,"Death/Not Me,Life/Me",Dead,571,0,1,Death/Not Me,9
1493,2,"Death/Not Me,Life/Me",Them,956,0,1,Death/Not Me,9
1494,2,"Death/Not Me,Life/Me",Alive,867,0,1,Life/Me,9
1495,2,"Death/Not Me,Life/Me",Self,1157,0,1,Life/Me,9
1496,2,"Death/Not Me,Life/Me",Breathing,618,0,1,Life/Me,9
1497,2,"Death/Not Me,Life/Me",They,946,0,1,Death/Not Me,9
1498,2,"Death/Not Me,Life/Me",Alive,901,0,1,Life/Me,9
1499,2,"Death/Not Me,Life/Me",I,551,0,1,Life/Me,9
1500,3,"Death/Not Me,Life/Me",They,859,0,1,Death/Not Me,9
1501,3,"Death/Not Me,Life/Me",Myself,729,0,1,Life/Me,9
1502,3,"Death/Not Me,Life/Me",Dead,626,0,1,Death/Not Me,9
1503,3,"Death/Not Me,Life/Me",Them,836,0,1,Death/Not Me,9
1504,3,"Death/Not Me,Life/Me",Alive,580,0,1,Life/Me,9
1505,3,"Death/Not Me,Life/Me",Self,734,0,1,Life/Me,9
1506,3,"Death/Not Me,Life/Me",Suicide,1399,0,1,Death/Not Me,9
1507,3,"Death/Not Me,Life/Me",Other,680,0,1,Death/Not Me,9
1508,3,"Death/Not Me,Life/Me",Alive,1388,0,1,Life/Me,9
1509,3,"Death/Not Me,Life/Me",I,1047,0,1,Life/Me,9
1510,3,"Death/Not Me,Life/Me",Die,588,0,1,Death/Not Me,9
1511,3,"Death/Not Me,Life/Me",Other,598,0,1,Death/Not Me,9
1512,3,"Death/Not Me,Life/Me",Breathing,564,0,1,Life/Me,9
1513,3,"Death/Not Me,Life/Me",Mine,937,0,1,Life/Me,9
1514,3,"Death/Not Me,Life/Me",Thrive,385,0,1,Life/Me,9
1515,3,"Death/Not Me,Life/Me",Them,649,0,1,Death/Not Me,9
1516,3,"Death/Not Me,Life/Me",Deceased,851,0,1,Death/Not Me,9
1517,3,"Death/Not Me,Life/Me",Myself,954,0,1,Life/Me,9
1518,3,"Death/Not Me,Life/Me",Dead,580,0,1,Death/Not Me,9
1519,3,"Death/Not Me,Life/Me",Die,770,1,0,Death/Not Me,9
1520,3,"Death/Not Me,Life/Me",Suicide,2103,1,0,Death/Not Me,9
1521,3,"Death/Not Me,Life/Me",I,2582,0,1,Life/Me,9
1522,3,"Death/Not Me,Life/Me",Breathing,696,0,1,Life/Me,9
1523,3,"Death/Not Me,Life/Me",Mine,644,0,1,Life/Me,9
1524,3,"Death/Not Me,Life/Me",Deceased,488,0,1,Death/Not Me,9
1525,3,"Death/Not Me,Life/Me",Self,1163,0,1,Life/Me,9
1526,3,"Death/Not Me,Life/Me",Living,424,0,1,Life/Me,9
1527,3,"Death/Not Me,Life/Me",Other,816,0,1,Death/Not Me,9
1528,3,"Death/Not Me,Life/Me",Die,927,0,1,Death/Not Me,9
1529,3,"Death/Not Me,Life/Me",Their,932,0,1,Death/Not Me,9
1530,3,"Death/Not Me,Life/Me",Thrive,733,1,0,Life/Me,9
1531,3,"Death/Not Me,Life/Me",Mine,916,0,1,Life/Me,9
1532,3,"Death/Not Me,Life/Me",Thrive,663,0,1,Life/Me,9
1533,3,"Death/Not Me,Life/Me",Their,787,1,0,Death/Not Me,9
1534,3,"Death/Not Me,Life/Me",Breathing,450,0,1,Life/Me,9
1535,3,"Death/Not Me,Life/Me",They,1235,0,1,Death/Not Me,9
1536,3,"Death/Not Me,Life/Me",Deceased,889,0,1,Death/Not Me,9
1537,3,"Death/Not Me,Life/Me",I,489,0,1,Life/Me,9
1538,3,"Death/Not Me,Life/Me",Them,652,0,1,Death/Not Me,9
1539,3,"Death/Not Me,Life/Me",Living,993,0,1,Life/Me,9
1540,4,"Life,Death",Suicide,1476,0,1,Death,9
1541,4,"Life,Death",Die,728,0,1,Death,9
1542,4,"Life,Death",Suicide,544,0,1,Death,9
1543,4,"Life,Death",Thrive,780,0,1,Life,9
1544,4,"Life,Death",Deceased,1005,0,1,Death,9
1545,4,"Life,Death",Dead,547,0,1,Death,9
1546,4,"Life,Death",Living,805,1,0,Life,9
1547,4,"Life,Death",Breathing,823,0,1,Life,9
1548,4,"Life,Death",Alive,1487,0,1,Life,9
1549,4,"Life,Death",Die,680,0,1,Death,9
1550,4,"Life,Death",Dead,699,0,1,Death,9
1551,4,"Life,Death",Dead,759,0,1,Death,9
1552,4,"Life,Death",Living,717,0,1,Life,9
1553,4,"Life,Death",Deceased,830,0,1,Death,9
1554,4,"Life,Death",Die,951,0,1,Death,9
1555,4,"Life,Death",Breathing,503,0,1,Life,9
1556,4,"Life,Death",Thrive,827,1,0,Life,9
1557,4,"Life,Death",Alive,895,0,1,Life,9
1558,4,"Life,Death",Suicide,2637,0,1,Death,9
1559,4,"Life,Death",Alive,806,0,1,Life,9
1560,4,"Life,Death",Living,1110,0,1,Life,9
1561,4,"Life,Death",Breathing,644,0,1,Life,9
1562,4,"Life,Death",Alive,1675,0,1,Life,9
1563,4,"Life,Death",Thrive,657,0,1,Life,9
1564,4,"Life,Death",Die,1065,0,1,Death,9
1565,4,"Life,Death",Deceased,674,0,1,Death,9
1566,4,"Life,Death",Suicide,1041,0,1,Death,9
1567,4,"Life,Death",Living,695,0,1,Life,9
1568,4,"Life,Death",Dead,954,0,1,Death,9
1569,4,"Life,Death",Thrive,2423,0,1,Life,9
1570,4,"Life,Death",Deceased,970,0,1,Death,9
1571,4,"Life,Death",Alive,507,0,1,Life,9
1572,4,"Life,Death",Suicide,1299,0,1,Death,9
1573,4,"Life,Death",Thrive,441,0,1,Life,9
1574,4,"Life,Death",Die,453,0,1,Death,9
1575,4,"Life,Death",Breathing,1250,0,1,Life,9
1576,4,"Life,Death",Dead,616,0,1,Death,9
1577,4,"Life,Death",Deceased,1431,0,1,Death,9
1578,4,"Life,Death",Breathing,469,0,1,Life,9
1579,4,"Life,Death",Living,704,0,1,Life,9
1580,5,"Life/Not Me,Death/Me",Other,950,0,1,Life/Not Me,9
1581,5,"Life/Not Me,Death/Me",Deceased,1066,0,1,Death/Me,9
1582,5,"Life/Not Me,Death/Me",Myself,985,0,1,Death/Me,9
1583,5,"Life/Not Me,Death/Me",Breathing,486,1,0,Life/Not Me,9
1584,5,"Life/Not Me,Death/Me",Them,971,0,1,Life/Not Me,9
1585,5,"Life/Not Me,Death/Me",Living,605,0,1,Life/Not Me,9
1586,5,"Life/Not Me,Death/Me",Mine,667,0,1,Death/Me,9
1587,5,"Life/Not Me,Death/Me",Die,509,0,1,Death/Me,9
1588,5,"Life/Not Me,Death/Me",Mine,719,0,1,Death/Me,9
1589,5,"Life/Not Me,Death/Me",Living,626,0,1,Life/Not Me,9
1590,5,"Life/Not Me,Death/Me",I,724,0,1,Death/Me,9
1591,5,"Life/Not Me,Death/Me",Suicide,946,0,1,Death/Me,9
1592,5,"Life/Not Me,Death/Me",Dead,556,0,1,Death/Me,9
1593,5,"Life/Not Me,Death/Me",Their,549,0,1,Life/Not Me,9
1594,5,"Life/Not Me,Death/Me",Self,591,0,1,Death/Me,9
1595,5,"Life/Not Me,Death/Me",Suicide,650,0,1,Death/Me,9
1596,5,"Life/Not Me,Death/Me",They,761,0,1,Life/Not Me,9
1597,5,"Life/Not Me,Death/Me",Alive,1417,0,1,Life/Not Me,9
1598,5,"Life/Not Me,Death/Me",I,663,0,1,Death/Me,9
1599,5,"Life/Not Me,Death/Me",Thrive,1062,0,1,Life/Not Me,9
1600,6,"Life/Not Me,Death/Me",Alive,662,1,0,Life/Not Me,9
1601,6,"Life/Not Me,Death/Me",They,699,0,1,Life/Not Me,9
1602,6,"Life/Not Me,Death/Me",Suicide,962,0,1,Death/Me,9
1603,6,"Life/Not Me,Death/Me",Mine,745,0,1,Death/Me,9
1604,6,"Life/Not Me,Death/Me",Die,412,0,1,Death/Me,9
1605,6,"Life/Not Me,Death/Me",Their,609,0,1,Life/Not Me,9
1606,6,"Life/Not Me,Death/Me",Breathing,608,1,0,Life/Not Me,9
1607,6,"Life/Not Me,Death/Me",Other,531,0,1,Life/Not Me,9
1608,6,"Life/Not Me,Death/Me",Thrive,496,0,1,Life/Not Me,9
1609,6,"Life/Not Me,Death/Me",I,961,0,1,Death/Me,9
1610,6,"Life/Not Me,Death/Me",Dead,939,0,1,Death/Me,9
1611,6,"Life/Not Me,Death/Me",Self,792,0,1,Death/Me,9
1612,6,"Life/Not Me,Death/Me",Living,777,1,0,Life/Not Me,9
1613,6,"Life/Not Me,Death/Me",Them,1551,0,1,Life/Not Me,9
1614,6,"Life/Not Me,Death/Me",Deceased,507,0,1,Death/Me,9
1615,6,"Life/Not Me,Death/Me",Their,702,0,1,Life/Not Me,9
1616,6,"Life/Not Me,Death/Me",Breathing,533,0,1,Life/Not Me,9
1617,6,"Life/Not Me,Death/Me",Self,822,0,1,Death/Me,9
1618,6,"Life/Not Me,Death/Me",Thrive,580,0,1,Life/Not Me,9
1619,6,"Life/Not Me,Death/Me",Deceased,1095,0,1,Death/Me,9
1620,6,"Life/Not Me,Death/Me",Myself,721,0,1,Death/Me,9
1621,6,"Life/Not Me,Death/Me",They,676,0,1,Life/Not Me,9
1622,6,"Life/Not Me,Death/Me",Them,688,0,1,Life/Not Me,9
1623,6,"Life/Not Me,Death/Me",Suicide,797,0,1,Death/Me,9
1624,6,"Life/Not Me,Death/Me",Other,1309,0,1,Life/Not Me,9
1625,6,"Life/Not Me,Death/Me",Living,914,1,0,Life/Not Me,9
1626,6,"Life/Not Me,Death/Me",Mine,766,1,0,Death/Me,9
1627,6,"Life/Not Me,Death/Me",Dead,993,0,1,Death/Me,9
1628,6,"Life/Not Me,Death/Me",Myself,477,0,1,Death/Me,9
1629,6,"Life/Not Me,Death/Me",Alive,611,0,1,Life/Not Me,9
1630,6,"Life/Not Me,Death/Me",Their,779,0,1,Life/Not Me,9
1631,6,"Life/Not Me,Death/Me",Dead,772,0,1,Death/Me,9
1632,6,"Life/Not Me,Death/Me",I,1432,0,1,Death/Me,9
1633,6,"Life/Not Me,Death/Me",Die,655,0,1,Death/Me,9
1634,6,"Life/Not Me,Death/Me",Them,681,0,1,Life/Not Me,9
1635,6,"Life/Not Me,Death/Me",Myself,975,0,1,Death/Me,9
1636,6,"Life/Not Me,Death/Me",Living,2081,0,1,Life/Not Me,9
1637,6,"Life/Not Me,Death/Me",Die,735,0,1,Death/Me,9
1638,6,"Life/Not Me,Death/Me",Self,1057,0,1,Death/Me,9
1639,6,"Life/Not Me,Death/Me",Thrive,529,0,1,Life/Not Me,9
1640,0,"Death,Life",Thrive,847,0,1,Life,10
1641,0,"Death,Life",Suicide,794,0,1,Death,10
1642,0,"Death,Life",Living,2473,0,1,Life,10
1643,0,"Death,Life",Breathing,682,0,1,Life,10
1644,0,"Death,Life",Dead,441,0,1,Death,10
1645,0,"Death,Life",Die,451,0,1,Death,10
1646,0,"Death,Life",Deceased,2303,0,1,Death,10
1647,0,"Death,Life",Alive,583,0,1,Life,10
1648,0,"Death,Life",Living,571,0,1,Life,10
1649,0,"Death,Life",Thrive,578,0,1,Life,10
1650,0,"Death,Life",Suicide,665,0,1,Death,10
1651,0,"Death,Life",Deceased,636,0,1,Death,10
1652,0,"Death,Life",Alive,787,0,1,Life,10
1653,0,"Death,Life",Dead,738,0,1,Death,10
1654,0,"Death,Life",Die,788,0,1,Death,10
1655,0,"Death,Life",Breathing,1627,0,1,Life,10
1656,0,"Death,Life",Suicide,1361,0,1,Death,10
1657,0,"Death,Life",Alive,881,0,1,Life,10
1658,0,"Death,Life",Die,2368,0,1,Death,10
1659,0,"Death,Life",Deceased,531,0,1,Death,10
1660,1,"Not Me,Me",They,635,0,1,Not Me,10
1661,1,"Not Me,Me",Other,5219,1,0,Not Me,10
1662,1,"Not Me,Me",Them,471,0,1,Not Me,10
1663,1,"Not Me,Me",Self,618,0,1,Me,10
1664,1,"Not Me,Me",Myself,542,1,0,Me,10
1665,1,"Not Me,Me",Their,670,0,1,Not Me,10
1666,1,"Not Me,Me",I,737,0,1,Me,10
1667,1,"Not Me,Me",Mine,849,0,1,Me,10
1668,1,"Not Me,Me",Myself,723,0,1,Me,10
1669,1,"Not Me,Me",I,626,0,1,Me,10
1670,1,"Not Me,Me",Them,1237,0,1,Not Me,10
1671,1,"Not Me,Me",Other,1408,0,1,Not Me,10
1672,1,"Not Me,Me",Their,445,0,1,Not Me,10
1673,1,"Not Me,Me",Self,1299,0,1,Me,10
1674,1,"Not Me,Me",Other,2495,0,1,Not Me,10
1675,1,"Not Me,Me",Myself,645,0,1,Me,10
1676,1,"Not Me,Me",Them,2009,0,1,Not Me,10
1677,1,"Not Me,Me",They,798,1,0,Not Me,10
1678,1,"Not Me,Me",They,620,0,1,Not Me,10
1679,1,"Not Me,Me",Mine,571,0,1,Me,10
1680,2,"Death/Not Me,Life/Me",Thrive,445,0,1,Life/Me,10
1681,2,"Death/Not Me,Life/Me",Other,583,0,1,Death/Not Me,10
1682,2,"Death/Not Me,Life/Me",Living,1041,1,0,Life/Me,10
1683,2,"Death/Not Me,Life/Me",Myself,1053,0,1,Life/Me,10
1684,2,"Death/Not Me,Life/Me",Die,706,0,1,Death/Not Me,10
1685,2,"Death/Not Me,Life/Me",Mine,804,0,1,Life/Me,10
1686,2,"Death/Not Me,Life/Me",Suicide,1241,0,1,Death/Not Me,10
1687,2,"Death/Not Me,Life/Me",I,1336,0,1,Life/Me,10
1688,2,"Death/Not Me,Life/Me",Living,832,0,1,Life/Me,10
1689,2,"Death/Not Me,Life/Me",Dead,681,0,1,Death/Not Me,10
1690,2,"Death/Not Me,Life/Me",They,550,0,1,Death/Not Me,10
1691,2,"Death/Not Me,Life/Me",Alive,441,0,1,Life/Me,10
1692,2,"Death/Not Me,Life/Me",Self,627,0,1,Life/Me,10
1693,2,"Death/Not Me,Life/Me",Deceased,395,0,1,Death/Not Me,10
1694,2,"Death/Not Me,Life/Me",Myself,474,0,1,Life/Me,10
1695,2,"Death/Not Me,Life/Me",Thrive,525,0,1,Life/Me,10
1696,2,"Death/Not Me,Life/Me",Other,601,0,1,Death/Not Me,10
1697,2,"Death/Not Me,Life/Me",Breathing,610,0,1,Life/Me,10
1698,2,"Death/Not Me,Life/Me",Them,845,0,1,Death/Not Me,10
1699,2,"Death/Not Me,Life/Me",Their,396,0,1,Death/Not Me,10
1700,3,"Death/Not Me,Life/Me",Their,454,0,1,Death/Not Me,10
1701,3,"Death/Not Me,Life/Me",Thrive,3012,1,0,Life/Me,10
1702,3,"Death/Not Me,Life/Me",I,587,0,1,Life/Me,10
1703,3,"Death/Not Me,Life/Me",Alive,554,0,1,Life/Me,10
1704,3,"Death/Not Me,Life/Me",They,463,0,1,Death/Not Me,10
1705,3,"Death/Not Me,Life/Me",Deceased,583,0,1,Death/Not Me,10
1706,3,"Death/Not Me,Life/Me",Self,694,0,1,Life/Me,10
1707,3,"Death/Not Me,Life/Me",Suicide,650,0,1,Death/Not Me,10
1708,3,"Death/Not Me,Life/Me",Myself,1981,0,1,Life/Me,10
1709,3,"Death/Not Me,Life/Me",Living,1266,0,1,Life/Me,10
1710,3,"Death/Not Me,Life/Me",Die,748,0,1,Death/Not Me,10
1711,3,"Death/Not Me,Life/Me",Thrive,1037,0,1,Life/Me,10
1712,3,"Death/Not Me,Life/Me",Myself,989,0,1,Life/Me,10
1713,3,"Death/Not Me,Life/Me",Die,988,0,1,Death/Not Me,10
1714,3,"Death/Not Me,Life/Me",Mine,647,0,1,Life/Me,10
1715,3,"Death/Not Me,Life/Me",Their,781,0,1,Death/Not Me,10
1716,3,"Death/Not Me,Life/Me",Suicide,719,1,0,Death/Not Me,10
1717,3,"Death/Not Me,Life/Me",Living,516,0,1,Life/Me,10
1718,3,"Death/Not Me,Life/Me",They,482,0,1,Death/Not Me,10
1719,3,"Death/Not Me,Life/Me",Dead,676,0,1,Death/Not Me,10
1720,3,"Death/Not Me,Life/Me",Them,611,0,1,Death/Not Me,10
1721,3,"Death/Not Me,Life/Me",Breathing,579,0,1,Life/Me,10
1722,3,"Death/Not Me,Life/Me",Them,685,0,1,Death/Not Me,10
1723,3,"Death/Not Me,Life/Me",Living,513,0,1,Life/Me,10
1724,3,"Death/Not Me,Life/Me",Myself,960,0,1,Life/Me,10
1725,3,"Death/Not Me,Life/Me",Self,579,0,1,Life/Me,10
1726,3,"Death/Not Me,Life/Me",Breathing,567,0,1,Life/Me,10
1727,3,"Death/Not Me,Life/Me",They,533,0,1,Death/Not Me,10
1728,3,"Death/Not Me,Life/Me",Die,599,0,1,Death/Not Me,10
1729,3,"Death/Not Me,Life/Me",Suicide,521,0,1,Death/Not Me,10
1730,3,"Death/Not Me,Life/Me",Other,770,0,1,Death/Not Me,10
1731,3,"Death/Not Me,Life/Me",Their,1761,0,1,Death/Not Me,10
1732,3,"Death/Not Me,Life/Me",Thrive,860,0,1,Life/Me,10
1733,3,"Death/Not Me,Life/Me",I,975,0,1,Life/Me,10
1734,3,"Death/Not Me,Life/Me",Alive,490,0,1,Life/Me,10
1735,3,"Death/Not Me,Life/Me",Self,659,0,1,Life/Me,10
1736,3,"Death/Not Me,Life/Me",Deceased,659,0,1,Death/Not Me,10
1737,3,"Death/Not Me,Life/Me",Mine,615,0,1,Life/Me,10
1738,3,"Death/Not Me,Life/Me",Dead,680,0,1,Death/Not Me,10
1739,3,"Death/Not Me,Life/Me",Other,512,0,1,Death/Not Me,10
1740,4,"Life,Death",Thrive,623,0,1,Life,10
1741,4,"Life,Death",Alive,637,0,1,Life,10
1742,4,"Life,Death",Dead,576,0,1,Death,10
1743,4,"Life,Death",Living,691,0,1,Life,10
1744,4,"Life,Death",Thrive,682,0,1,Life,10
1745,4,"Life,Death",Die,784,0,1,Death,10
1746,4,"Life,Death",Suicide,597,1,0,Death,10
1747,4,"Life,Death",Alive,1373,0,1,Life,10
1748,4,"Life,Death",Breathing,532,1,0,Life,10
1749,4,"Life,Death",Living,774,0,1,Life,10
1750,4,"Life,Death",Suicide,733,1,0,Death,10
1751,4,"Life,Death",Die,661,0,1,Death,10
1752,4,"Life,Death",Deceased,1021,0,1,Death,10
1753,4,"Life,Death",Suicide,1109,0,1,Death,10
1754,4,"Life,Death",Breathing,1181,0,1,Life,10
1755,4,"Life,Death",Die,448,0,1,Death,10
1756,4,"Life,Death",Living,889,0,1,Life,10
1757,4,"Life,Death",Dead,794,0,1,Death,10
1758,4,"Life,Death",Deceased,588,0,1,Death,10
1759,4,"Life,Death",Alive,1269,0,1,Life,10
1760,4,"Life,Death",Suicide,509,0,1,Death,10
1761,4,"Life,Death",Dead,619,0,1,Death,10
1762,4,"Life,Death",Breathing,801,0,1,Life,10
1763,4,"Life,Death",Deceased,862,0,1,Death,10
1764,4,"Life,Death",Die,935,0,1,Death,10
1765,4,"Life,Death",Thrive,1080,0,1,Life,10
1766,4,"Life,Death",Living,467,0,1,Life,10
1767,4,"Life,Death",Alive,698,0,1,Life,10
1768,4,"Life,Death",Dead,629,0,1,Death,10
1769,4,"Life,Death",Thrive,4559,0,1,Life,10
1770,4,"Life,Death",Deceased,376,0,1,Death,10
1771,4,"Life,Death",Living,1144,0,1,Life,10
1772,4,"Life,Death",Suicide,864,0,1,Death,10
1773,4,"Life,Death",Dead,741,0,1,Death,10
1774,4,"Life,Death",Alive,480,0,1,Life,10
1775,4,"Life,Death",Die,874,0,1,Death,10
1776,4,"Life,Death",Thrive,1274,0,1,Life,10
1777,4,"Life,Death",Breathing,1392,1,0,Life,10
1778,4,"Life,Death",Breathing,403,1,0,Life,10
1779,4,"Life,Death",Deceased,869,0,1,Death,10
1780,5,"Life/Not Me,Death/Me",Other,543,0,1,Life/Not Me,10
1781,5,"Life/Not Me,Death/Me",Their,673,0,1,Life/Not Me,10
1782,5,"Life/Not Me,Death/Me",Alive,773,0,1,Life/Not Me,10
1783,5,"Life/Not Me,Death/Me",Other,750,0,1,Life/Not Me,10
1784,5,"Life/Not Me,Death/Me",Die,1820,0,1,Death/Me,10
1785,5,"Life/Not Me,Death/Me",Mine,1001,0,1,Death/Me,10
1786,5,"Life/Not Me,Death/Me",Self,795,0,1,Death/Me,10
1787,5,"Life/Not Me,Death/Me",Suicide,634,0,1,Death/Me,10
1788,5,"Life/Not Me,Death/Me",Them,678,0,1,Life/Not Me,10
1789,5,"Life/Not Me,Death/Me",Living,432,0,1,Life/Not Me,10
1790,5,"Life/Not Me,Death/Me",I,938,0,1,Death/Me,10
1791,5,"Life/Not Me,Death/Me",Thrive,754,0,1,Life/Not Me,10
1792,5,"Life/Not Me,Death/Me",They,656,0,1,Life/Not Me,10
1793,5,"Life/Not Me,Death/Me",Dead,1038,0,1,Death/Me,10
1794,5,"Life/Not Me,Death/Me",Myself,492,0,1,Death/Me,10
1795,5,"Life/Not Me,Death/Me",Deceased,815,0,1,Death/Me,10
1796,5,"Life/Not Me,Death/Me",Mine,1466,0,1,Death/Me,10
1797,5,"Life/Not Me,Death/Me",Die,555,0,1,Death/Me,10
1798,5,"Life/Not Me,Death/Me",Breathing,679,0,1,Life/Not Me,10
1799,5,"Life/Not Me,Death/Me",Dead,787,0,1,Death/Me,10
1800,6,"Life/Not Me,Death/Me",Deceased,3730,0,1,Death/Me,10
1801,6,"Life/Not Me,Death/Me",Their,1084,0,1,Life/Not Me,10
1802,6,"Life/Not Me,Death/Me",Breathing,920,0,1,Life/Not Me,10
1803,6,"Life/Not Me,Death/Me",They,884,0,1,Life/Not Me,10
1804,6,"Life/Not Me,Death/Me",Dead,640,0,1,Death/Me,10
1805,6,"Life/Not Me,Death/Me",Other,932,0,1,Life/Not Me,10
1806,6,"Life/Not Me,Death/Me",Suicide,814,0,1,Death/Me,10
1807,6,"Life/Not Me,Death/Me",Them,667,0,1,Life/Not Me,10
1808,6,"Life/Not Me,Death/Me",Breathing,523,0,1,Life/Not Me,10
1809,6,"Life/Not Me,Death/Me",Mine,1254,0,1,Death/Me,10
1810,6,"Life/Not Me,Death/Me",Alive,1101,0,1,Life/Not Me,10
1811,6,"Life/Not Me,Death/Me",Myself,852,0,1,Death/Me,10
1812,6,"Life/Not Me,Death/Me",Deceased,2869,0,1,Death/Me,10
1813,6,"Life/Not Me,Death/Me",I,460,0,1,Death/Me,10
1814,6,"Life/Not Me,Death/Me",Alive,792,0,1,Life/Not Me,10
1815,6,"Life/Not Me,Death/Me",Self,608,0,1,Death/Me,10
1816,6,"Life/Not Me,Death/Me",Die,1508,0,1,Death/Me,10
1817,6,"Life/Not Me,Death/Me",Dead,602,0,1,Death/Me,10
1818,6,"Life/Not Me,Death/Me",I,687,0,1,Death/Me,10
1819,6,"Life/Not Me,Death/Me",Deceased,819,0,1,Death/Me,10
1820,6,"Life/Not Me,Death/Me",Self,523,1,0,Death/Me,10
1821,6,"Life/Not Me,Death/Me",Breathing,774,0,1,Life/Not Me,10
1822,6,"Life/Not Me,Death/Me",Them,505,0,1,Life/Not Me,10
1823,6,"Life/Not Me,Death/Me",Living,544,0,1,Life/Not Me,10
1824,6,"Life/Not Me,Death/Me",Myself,1175,1,0,Death/Me,10
1825,6,"Life/Not Me,Death/Me",Alive,684,0,1,Life/Not Me,10
1826,6,"Life/Not Me,Death/Me",Other,527,0,1,Life/Not Me,10
1827,6,"Life/Not Me,Death/Me",Thrive,915,0,1,Life/Not Me,10
1828,6,"Life/Not Me,Death/Me",Die,1197,0,1,Death/Me,10
1829,6,"Life/Not Me,Death/Me",Mine,803,0,1,Death/Me,10
1830,6,"Life/Not Me,Death/Me",Suicide,529,0,1,Death/Me,10
1831,6,"Life/Not Me,Death/Me",Mine,525,0,1,Death/Me,10
1832,6,"Life/Not Me,Death/Me",Thrive,586,1,0,Life/Not Me,10
1833,6,"Life/Not Me,Death/Me",Them,867,0,1,Life/Not Me,10
1834,6,"Life/Not Me,Death/Me",Living,430,0,1,Life/Not Me,10
1835,6,"Life/Not Me,Death/Me",Other,576,0,1,Life/Not Me,10
1836,6,"Life/Not Me,Death/Me",Suicide,740,0,1,Death/Me,10
1837,6,"Life/Not Me,Death/Me",Myself,1131,0,1,Death/Me,10
1838,6,"Life/Not Me,Death/Me",Their,568,0,1,Life/Not Me,10
1839,6,"Life/Not Me,Death/Me",They,417,0,1,Life/Not Me,10
1840,0,"Death,Life",Deceased,568,0,1,Death,11
1841,0,"Death,Life",Alive,1113,0,1,Life,11
1842,0,"Death,Life",Suicide,1029,0,1,Death,11
1843,0,"Death,Life",Die,547,0,1,Death,11
1844,0,"Death,Life",Breathing,939,0,1,Life,11
1845,0,"Death,Life",Thrive,583,0,1,Life,11
1846,0,"Death,Life",Living,488,0,1,Life,11
1847,0,"Death,Life",Dead,929,0,1,Death,11
1848,0,"Death,Life",Alive,2149,0,1,Life,11
1849,0,"Death,Life",Die,883,0,1,Death,11
1850,0,"Death,Life",Deceased,666,0,1,Death,11
1851,0,"Death,Life",Living,515,0,1,Life,11
1852,0,"Death,Life",Dead,1135,0,1,Death,11
1853,0,"Death,Life",Thrive,843,0,1,Life,11
1854,0,"Death,Life",Breathing,912,0,1,Life,11
1855,0,"Death,Life",Suicide,965,0,1,Death,11
1856,0,"Death,Life",Living,559,0,1,Life,11
1857,0,"Death,Life",Thrive,955,0,1,Life,11
1858,0,"Death,Life",Alive,563,0,1,Life,11
1859,0,"Death,Life",Die,507,0,1,Death,11
1860,1,"Not Me,Me",Myself,790,0,1,Me,11
1861,1,"Not Me,Me",Self,790,1,0,Me,11
1862,1,"Not Me,Me",Them,399,0,1,Not Me,11
1863,1,"Not Me,Me",Other,1012,0,1,Not Me,11
1864,1,"Not Me,Me",Other,716,0,1,Not Me,11
1865,1,"Not Me,Me",They,573,0,1,Not Me,11
1866,1,"Not Me,Me",I,1126,0,1,Me,11
1867,1,"Not Me,Me",Self,473,0,1,Me,11
1868,1,"Not Me,Me",I,1877,0,1,Me,11
1869,1,"Not Me,Me",Other,427,0,1,Not Me,11
1870,1,"Not Me,Me",Their,706,0,1,Not Me,11
1871,1,"Not Me,Me",They,576,0,1,Not Me,11
1872,1,"Not Me,Me",Them,419,0,1,Not Me,11
1873,1,"Not Me,Me",Myself,1148,0,1,Me,11
1874,1,"Not Me,Me",Their,1137,0,1,Not Me,11
1875,1,"Not Me,Me",Myself,603,0,1,Me,11
1876,1,"Not Me,Me",Self,480,1,0,Me,11
1877,1,"Not Me,Me",Them,584,0,1,Not Me,11
1878,1,"Not Me,Me",Mine,1400,0,1,Me,11
1879,1,"Not Me,Me",Mine,604,0,1,Me,11
1880,2,"Death/Not Me,Life/Me",Other,763,0,1,Death/Not Me,11
1881,2,"Death/Not Me,Life/Me",Their,668,0,1,Death/Not Me,11
1882,2,"Death/Not Me,Life/Me",Dead,811,0,1,Death/Not Me,11
1883,2,"Death/Not Me,Life/Me",Them,545,0,1,Death/Not Me,11
1884,2,"Death/Not Me,Life/Me",Thrive,593,1,0,Life/Me,11
1885,2,"Death/Not Me,Life/Me",Myself,1195,0,1,Life/Me,11
1886,2,"Death/Not Me,Life/Me",Suicide,871,0,1,Death/Not Me,11
1887,2,"Death/Not Me,Life/Me",Self,519,0,1,Life/Me,11
1888,2,"Death/Not Me,Life/Me",Living,2568,0,1,Life/Me,11
1889,2,"Death/Not Me,Life/Me",Alive,846,0,1,Life/Me,11
1890,2,"Death/Not Me,Life/Me",Mine,597,0,1,Life/Me,11
1891,2,"Death/Not Me,Life/Me",I,581,0,1,Life/Me,11
1892,2,"Death/Not Me,Life/Me",Breathing,400,0,1,Life/Me,11
1893,2,"Death/Not Me,Life/Me",They,373,1,0,Death/Not Me,11
1894,2,"Death/Not Me,Life/Me",Deceased,958,0,1,Death/Not Me,11
1895,2,"Death/Not Me,Life/Me",I,938,0,1,Life/Me,11
1896,2,"Death/Not Me,Life/Me",Dead,883,0,1,Death/Not Me,11
1897,2,"Death/Not Me,Life/Me",Their,1460,0,1,Death/Not Me,11
1898,2,"Death/Not Me,Life/Me",Die,657,0,1,Death/Not Me,11
1899,2,"Death/Not Me,Life/Me",Die,556,0,1,Death/Not Me,11
1900,3,"Death/Not Me,Life/Me",I,652,0,1,Life/Me,11
1901,3,"Death/Not Me,Life/Me",Breathing,502,0,1,Life/Me,11
1902,3,"Death/Not Me,Life/Me",Mine,1200,0,1,Life/Me,11
1903,3,"Death/Not Me,Life/Me",Suicide,2071,0,1,Death/Not Me,11
1904,3,"Death/Not Me,Life/Me",They,587,0,1,Death/Not Me,11
1905,3,"Death/Not Me,Life/Me",Deceased,872,0,1,Death/Not Me,11
1906,3,"Death/Not Me,Life/Me",Their,1227,0,1,Death/Not Me,11
1907,3,"Death/Not Me,Life/Me",Thrive,803,1,0,Life/Me,11
1908,3,"Death/Not Me,Life/Me",Self,701,0,1,Life/Me,11
1909,3,"Death/Not Me,Life/Me",Living,586,0,1,Life/Me,11
1910,3,"Death/Not Me,Life/Me",Mine,769,0,1,Life/Me,11
1911,3,"Death/Not Me,Life/Me",Die,1048,0,1,Death/Not Me,11
1912,3,"Death/Not Me,Life/Me",They,939,0,1,Death/Not Me,11
1913,3,"Death/Not Me,Life/Me",Deceased,465,0,1,Death/Not Me,11
1914,3,"Death/Not Me,Life/Me",Them,1207,0,1,Death/Not Me,11
1915,3,"Death/Not Me,Life/Me",Die,689,0,1,Death/Not Me,11
1916,3,"Death/Not Me,Life/Me",Dead,711,0,1,Death/Not Me,11
1917,3,"Death/Not Me,Life/Me",Myself,525,0,1,Life/Me,11
1918,3,"Death/Not Me,Life/Me",Suicide,647,0,1,Death/Not Me,11
1919,3,"Death/Not Me,Life/Me",Other,728,1,0,Death/Not Me,11
1920,3,"Death/Not Me,Life/Me",Living,537,0,1,Life/Me,11
1921,3,"Death/Not Me,Life/Me",They,501,0,1,Death/Not Me,11
1922,3,"Death/Not Me,Life/Me",Die,511,0,1,Death/Not Me,11
1923,3,"Death/Not Me,Life/Me",Mine,447,0,1,Life/Me,11
1924,3,"Death/Not Me,Life/Me",Breathing,1167,0,1,Life/Me,11
1925,3,"Death/Not Me,Life/Me",I,1368,0,1,Life/Me,11
1926,3,"Death/Not Me,Life/Me",Alive,650,0,1,Life/Me,11
1927,3,"Death/Not Me,Life/Me",Their,1170,1,0,Death/Not Me,11
1928,3,"Death/Not Me,Life/Me",Dead,621,0,1,Death/Not Me,11
1929,3,"Death/Not Me,Life/Me",Them,720,0,1,Death/Not Me,11
1930,3,"Death/Not Me,Life/Me",Thrive,595,0,1,Life/Me,11
1931,3,"Death/Not Me,Life/Me",Self,609,0,1,Life/Me,11
1932,3,"Death/Not Me,Life/Me",Deceased,1118,0,1,Death/Not Me,11
1933,3,"Death/Not Me,Life/Me",Self,898,1,0,Life/Me,11
1934,3,"Death/Not Me,Life/Me",Thrive,1362,0,1,Life/Me,11
1935,3,"Death/Not Me,Life/Me",Other,419,0,1,Death/Not Me,11
1936,3,"Death/Not Me,Life/Me",Alive,2089,1,0,Life/Me,11
1937,3,"Death/Not Me,Life/Me",Their,709,0,1,Death/Not Me,11
1938,3,"Death/Not Me,Life/Me",Myself,918,0,1,Life/Me,11
1939,3,"Death/Not Me,Life/Me",Living,615,0,1,Life/Me,11
1940,4,"Life,Death",Deceased,687,0,1,Death,11
1941,4,"Life,Death",Die,544,0,1,Death,11
1942,4,"Life,Death",Deceased,1389,0,1,Death,11
1943,4,"Life,Death",Suicide,656,1,0,Death,11
1944,4,"Life,Death",Alive,647,0,1,Life,11
1945,4,"Life,Death",Living,688,0,1,Life,11
1946,4,"Life,Death",Deceased,729,0,1,Death,11
1947,4,"Life,Death",Die,539,0,1,Death,11
1948,4,"Life,Death",Suicide,482,0,1,Death,11
1949,4,"Life,Death",Breathing,784,0,1,Life,11
1950,4,"Life,Death",Alive,868,0,1,Life,11
1951,4,"Life,Death",Dead,7213,0,1,Death,11
1952,4,"Life,Death",Thrive,619,0,1,Life,11
1953,4,"Life,Death",Thrive,540,0,1,Life,11
1954,4,"Life,Death",Alive,1020,0,1,Life,11
1955,4,"Life,Death",Suicide,682,0,1,Death,11
1956,4,"Life,Death",Dead,807,0,1,Death,11
1957,4,"Life,Death",Deceased,1106,0,1,Death,11
1958,4,"Life,Death",Living,1989,0,1,Life,11
1959,4,"Life,Death",Breathing,1209,0,1,Life,11
1960,4,"Life,Death",Die,652,0,1,Death,11
1961,4,"Life,Death",Dead,736,0,1,Death,11
1962,4,"Life,Death",Living,646,0,1,Life,11
1963,4,"Life,Death",Breathing,929,0,1,Life,11
1964,4,"Life,Death",Thrive,874,0,1,Life,11
1965,4,"Life,Death",Suicide,545,0,1,Death,11
1966,4,"Life,Death",Dead,636,0,1,Death,11
1967,4,"Life,Death",Thrive,831,0,1,Life,11
1968,4,"Life,Death",Deceased,650,0,1,Death,11
1969,4,"Life,Death",Living,649,0,1,Life,11
1970,4,"Life,Death",Die,540,0,1,Death,11
1971,4,"Life,Death",Breathing,589,0,1,Life,11
1972,4,"Life,Death",Living,448,0,1,Life,11
1973,4,"Life,Death",Die,991,0,1,Death,11
1974,4,"Life,Death",Suicide,750,0,1,Death,11
1975,4,"Life,Death",Dead,567,0,1,Death,11
1976,4,"Life,Death",Alive,1148,0,1,Life,11
1977,4,"Life,Death",Thrive,1292,1,0,Life,11
1978,4,"Life,Death",Breathing,498,0,1,Life,11
1979,4,"Life,Death",Alive,718,0,1,Life,11
1980,5,"Life/Not Me,Death/Me",Other,426,0,1,Life/Not Me,11
1981,5,"Life/Not Me,Death/Me",Self,530,1,0,Death/Me,11
1982,5,"Life/Not Me,Death/Me",Breathing,892,0,1,Life/Not Me,11
1983,5,"Life/Not Me,Death/Me",Myself,518,0,1,Death/Me,11
1984,5,"Life/Not Me,Death/Me",Deceased,1145,0,1,Death/Me,11
1985,5,"Life/Not Me,Death/Me",They,611,0,1,Life/Not Me,11
1986,5,"Life/Not Me,Death/Me",Suicide,746,0,1,Death/Me,11
1987,5,"Life/Not Me,Death/Me",Other,368,0,1,Life/Not Me,11
1988,5,"Life/Not Me,Death/Me",Living,884,1,0,Life/Not Me,11
1989,5,"Life/Not Me,Death/Me",Thrive,551,1,0,Life/Not Me,11
1990,5,"Life/Not Me,Death/Me",Deceased,1382,0,1,Death/Me,11
1991,5,"Life/Not Me,Death/Me",Dead,970,0,1,Death/Me,11
1992,5,"Life/Not Me,Death/Me",Self,784,0,1,Death/Me,11
